Condition,N_Scenario,written_scenario,ImageA1,ImageA2,ImageA3,ImageB1,ImageB2,ImageB3,ImageC1,ImageC2,ImageC3,trials_2.thisRepN,trials_2.thisTrialN,trials_2.thisN,trials_2.thisIndex,trial.thisRepN,trial.thisTrialN,trial.thisN,trial.thisIndex,button_2.started,button_2.stopped,button_2.numClicks,button_2.timesOn,button_2.timesOff,text.started,text.stopped,fixationcross1_started,fixationcross1_stopped,Scenario_started,Scenario_stopped,fixationcross2_started,fixationcross2_stopped,A1pos,A2pos,A3pos,B1pos,B2pos,B3pos,C1pos,C2pos,C3pos,﻿Imagesdecision_started,decisiontimeA,decisiontimeB,decisiontimeC,mouse_x,mouse_y,mouse_leftButton,mouse_midButton,mouse_rightButton,mouse_time,mouse_started,mouse_stopped,clicked_optionA,clicked_optionB,clicked_optionC,colour_category_A,colour_category_B,colour_category_C,question_confidence_started,question_confidence_stopped,slider_confidence_response,slider_confidence_rt,slider_confidence_started,slider_confidence_stopped,question_valueC_started,question_valueC_stopped,slider_valueC_response,slider_valueC_rt,question_valueA_started,question_valueA_stopped,slider_valueA_response,slider_valueA_rt,question_valueB_started,question_valueB_stopped,slider_valueB_response,slider_valueB_rt,Importance_First,Importance_Second,Importance_Third,question_diff_started,question_diff_stopped,slider_diffA_response,slider_diffA_rt,slider_diffC_response,slider_diffC_rt,slider_diffB_response,slider_diffB_rt,diff_First,diff_Second,diff_Third,button_3_started,button_3_stopped,text_2_started,text_2_stopped,Imagesdecision_started,question_diffA_started,question_diffA_stopped,question_diffC_started,question_diffC_stopped,question_diffB_started,question_diffB_stopped,participant,session,date,expName,psychopyVersion,frameRate,
3,2,Plan a party to celebrate your birthday,Stimuli/2A1t.jpg,Stimuli/2A2t.jpg,Stimuli/2A3t.jpg,Stimuli/2B1t.jpg,Stimuli/2B2t.jpg,Stimuli/2B3t.jpg,Stimuli/2C1t.jpg,Stimuli/2C2t.jpg,Stimuli/2C3t.jpg,0,0,0,0,,,,,37.5921871999999,None,1,[6.500238299999182],[6.500242199999775],37.5921871999999,None,78.50032979999742,None,79.50999020000017,None,85.51006029999917,None,"[0.399, -0.003]","[-0.2, 0.346]","[-0.203, -0.347]","[0.306, 0.255]","[-0.377, 0.138]","[0.066, -0.395]","[0.07, 0.393]","[-0.378, -0.136]","[0.304, -0.26]",89.51193209999838,8.675450399987312,7.692434399988997,6.693874999986292,"[0.062037037037037036, 0.32407407407407407, -0.19722222222222222]","[0.3648148148148148, 0.19814814814814816, -0.37222222222222223]","[1, 1, 1]","[0, 0, 0]","[0, 0, 0]","[6.6803115000002435, 7.6791120000016235, 8.662186599998677]",0.012638799988053506,8.67474899998706,['A3'],['B1'],['C1'],['yellow'],['salmon'],['blue'],98.64280080000026,None,8.0,6.046566200002417,98.64280080000026,None,104.77619699999923,None,5.0,10.097338100000343,116.14823089999845,None,8.0,5.764595699998608,122.2088146999995,None,10.0,5.59864540000126,<function functionImportanceCt at 0x000002018A8A1D08>,<function functionImportanceAt at 0x0000020186C43268>,<function functionImportanceBt at 0x00000201FB391E18>,144.55841209999926,None,0.0,5.764595699998608,3.0,12.114159000000654,4.0,6.397654199998215,<function functiondiffAt at 0x000002018AACB1E0>,<function functiondiffCt at 0x000002018AACBEA0>,<function functiondiffBt at 0x000002018AACBF28>,,,,,,,,,,,,14,001,2022_Jul_12_1607,2leo,2021.2.3,60.014535520271174,
3,3,Plan one week of vacation,Stimuli/3A1t.jpg,Stimuli/3A2t.jpg,Stimuli/3A3t.jpg,Stimuli/3B1t.jpg,Stimuli/3B2t.jpg,Stimuli/3B3t.jpg,Stimuli/3C1t.jpg,Stimuli/3C2t.jpg,Stimuli/3C3t.jpg,0,1,1,1,,,,,,,,,,,,150.04140740000003,None,151.0415506999998,None,157.0414822999992,None,"[-0.2, 0.346]","[0.399, -0.003]","[-0.203, -0.347]","[-0.378, -0.136]","[0.07, 0.393]","[0.304, -0.26]","[-0.377, 0.138]","[0.306, 0.255]","[0.066, -0.395]",163.15823649999948,13.516488759982167,15.433031959983055,19.04998415998125,"[-0.19722222222222222, -0.38055555555555554, 0.08333333333333333]","[0.38333333333333336, -0.12222222222222222, -0.36666666666666664]","[1, 1, 1]","[0, 0, 0]","[0, 0, 0]","[13.499645700001565, 15.41591200000039, 19.03245909999896]",0.016441159983514808,19.048832559983566,['A1'],['B1'],['C3'],['yellow'],['salmon'],['blue'],182.65712259999782,None,8.0,4.998085399998672,182.65712259999782,None,212.0233526999982,None,4.0,6.43187559999933,200.79028029999972,None,4.0,11.698264999999083,189.42379359999904,None,9.0,11.130827399996633,<function functionImportanceBt at 0x000002018A8A1BF8>,<function functionImportanceAt at 0x000002018A8A1A60>,<function functionImportanceCt at 0x00000201F82331E0>,234.0060057999981,None,0.0,11.698264999999083,3.0,8.447950099998707,1.0,4.864624800000456,<function functiondiffCt at 0x000002018AACB510>,<function functiondiffAt at 0x000002018AACB730>,<function functiondiffBt at 0x000002018AACB620>,,,,,,,,,,,,14,001,2022_Jul_12_1607,2leo,2021.2.3,60.014535520271174,
3,26,Plan how to wash one round of your laundry ,Stimuli/26A1.jpg,Stimuli/26A2.jpg,Stimuli/26A3.jpg,Stimuli/26B1.jpg,Stimuli/26B2.jpg,Stimuli/26B3.jpg,Stimuli/26C1.jpg,Stimuli/26C2.jpg,Stimuli/26C3.jpg,,,,,0,0,0,26,,,,,,,,329.86400800000047,None,330.85350109999854,None,336.85337509999954,None,"[0.306, 0.255]","[-0.377, 0.138]","[0.066, -0.395]","[0.399, -0.003]","[-0.2, 0.346]","[-0.203, -0.347]","[0.07, 0.393]","[-0.378, -0.136]","[0.304, -0.26]",,17.12656209999841,23.193187600001693,20.276736100000562,"[0.05462962962962963, 0.062037037037037036, 0.4027777777777778]","[-0.3768518518518518, 0.3851851851851852, -0.016666666666666666]","[1, 1, 1]","[0, 0, 0]","[0, 0, 0]","[17.1126105000003, 20.26244080000106, 23.179195799999434]",0.013317699998879107,23.192258300001413,['A3'],['B1'],['C1'],['yellow'],['salmon'],['blue'],361.66916520000086,None,6.0,2.6459219999997003,361.66916520000086,None,384.53530319999845,None,3.0,7.364834399999381,376.1688519999989,None,5.0,8.347960900002363,364.43595709999863,None,8.0,11.730808099997375,<function functionImportanceB at 0x000002018AACBC80>,<function functionImportanceA at 0x000002018A8A19D8>,<function functionImportanceC at 0x000002018AC9D598>,,,4.0,9.247069400000328,4.0,8.347960900002363,-0.0,3.0310984999996435,<function functiondiffA at 0x000002018AACB598>,<function functiondiffC at 0x000002018AACBAE8>,<function functiondiffB at 0x000002018AACB6A8>,238.00587499999892,None,238.00587499999892,None,338.00652439999976,391.85180000000037,None,401.1182670999988,None,412.2680287999974,None,14,001,2022_Jul_12_1607,2leo,2021.2.3,60.014535520271174,
3,44,Plan a party at your place,Stimuli/44A1.jpg,Stimuli/44A2.jpg,Stimuli/44A3.jpg,Stimuli/44B1.jpg,Stimuli/44B2.jpg,Stimuli/44B3.jpg,Stimuli/44C1.jpg,Stimuli/44C2.jpg,Stimuli/44C3.jpg,,,,,0,1,1,44,,,,,,,,414.8177341999981,None,415.8178337999998,None,421.8177251999987,None,"[-0.377, 0.138]","[0.066, -0.395]","[0.306, 0.255]","[-0.2, 0.346]","[-0.203, -0.347]","[0.399, -0.003]","[-0.378, -0.136]","[0.304, -0.26]","[0.07, 0.393]",,17.595390340004087,15.462688740004523,16.512621940004465,"[-0.1962962962962963, -0.32037037037037036, 0.08518518518518518]","[-0.3527777777777778, -0.14722222222222223, -0.39537037037037037]","[1, 1, 1]","[0, 0, 0]","[0, 0, 0]","[15.447453799999494, 16.497221900001023, 17.580375900000945]",0.014468840003246441,17.594764440003928,['A2'],['B2'],['C1'],['salmon'],['blue'],['yellow'],441.00041679999777,None,9.0,5.030367799998203,441.00041679999777,None,454.1334332999977,None,2.0,10.69844060000105,446.08380829999805,None,4.0,8.013968999999634,464.8498523999988,None,9.0,5.098314400001982,<function functionImportanceA at 0x000002018A860EA0>,<function functionImportanceC at 0x000002018AC9D268>,<function functionImportanceB at 0x000002018A08A9D8>,,,7.0,7.164600500000233,7.0,8.013968999999634,0.0,6.480875500001275,<function functiondiffA at 0x000002018AC9D730>,<function functiondiffC at 0x000002018AC9DC80>,<function functiondiffB at 0x000002018AC9D950>,,,,,422.93481379999866,469.93328629999814,None,477.11629379999795,None,487.8826224000004,None,14,001,2022_Jul_12_1607,2leo,2021.2.3,60.014535520271174,
3,43,Plan your dream house,Stimuli/43A1.jpg,Stimuli/43A2.jpg,Stimuli/43A3.jpg,Stimuli/43B1.jpg,Stimuli/43B2.jpg,Stimuli/43B3.jpg,Stimuli/43C1.jpg,Stimuli/43C2.jpg,Stimuli/43C3.jpg,,,,,0,2,2,43,,,,,,,,493.86583509999764,None,494.8656899999987,None,500.86584369999764,None,"[-0.377, 0.138]","[0.306, 0.255]","[0.066, -0.395]","[-0.2, 0.346]","[0.399, -0.003]","[-0.203, -0.347]","[-0.378, -0.136]","[0.07, 0.393]","[0.304, -0.26]",,15.029315939998924,22.646338539998396,15.946310139999696,"[-0.38055555555555554, -0.37592592592592594, -0.18333333333333332]","[0.1537037037037037, -0.17962962962962964, -0.32222222222222224]","[1, 1, 1]","[0, 0, 0]","[0, 0, 0]","[15.022548599998117, 15.939022399998066, 22.639133999997284]",0.006351939999149181,22.645247839998774,['A1'],['B3'],['C1'],['salmon'],['yellow'],['blue'],525.1147988999983,None,10.0,4.113477199996851,525.1147988999983,None,529.2815703999986,None,9.0,9.030785099999775,538.3645701999994,None,9.0,6.248452800002269,544.5978866999976,None,9.0,5.114946700003202,<function functionImportanceC at 0x000002018AC9DD08>,<function functionImportanceA at 0x000002018A090E18>,<function functionImportanceB at 0x000002018AC9D378>,,,0.0,4.7312144999996235,4.0,6.248452800002269,7.0,3.331179199998587,<function functiondiffA at 0x000002018AACB400>,<function functiondiffB at 0x000002018AACB488>,<function functiondiffC at 0x000002018AC9DAE8>,,,,,501.99005279999983,549.6976939999986,None,557.8141541000005,None,554.4640829999989,None,14,001,2022_Jul_12_1607,2leo,2021.2.3,60.014535520271174,
3,33,Plan the items to decorate your Christmas tree,Stimuli/33A1.jpg,Stimuli/33A2.jpg,Stimuli/33A3.jpg,Stimuli/33B1.jpg,Stimuli/33B2.jpg,Stimuli/33B3.jpg,Stimuli/33C1.jpg,Stimuli/33C2.jpg,Stimuli/33C3.jpg,,,,,0,3,3,33,,,,,,,,561.1307426999992,None,562.1305227999983,None,568.1305470000007,None,"[-0.377, 0.138]","[0.306, 0.255]","[0.066, -0.395]","[-0.2, 0.346]","[0.399, -0.003]","[-0.203, -0.347]","[-0.378, -0.136]","[0.07, 0.393]","[0.304, -0.26]",,32.71846589999768,26.03561069999705,23.719344099994487,"[0.09722222222222222, -0.1685185185185185, -0.387037037037037]","[0.362962962962963, -0.34444444444444444, 0.09814814814814815]","[1, 1, 1]","[0, 0, 0]","[0, 0, 0]","[23.708772699999827, 26.02512829999978, 32.70846309999979]",0.009539099995890865,32.71788079999533,['A1'],['B3'],['C2'],['blue'],['salmon'],['yellow'],602.9795336999996,None,8.0,5.080386999998154,602.9795336999996,None,622.1291884999991,None,5.0,4.831619699998555,608.6474540999989,None,5.0,10.447704300000623,618.5793502999986,None,5.0,3.498328899997432,<function functionImportanceA at 0x000002018AACB8C8>,<function functionImportanceB at 0x000002018AACB9D8>,<function functionImportanceC at 0x000002018AC9DD90>,,,9.0,3.614274399998976,6.0,10.447704300000623,7.0,7.864746400002332,<function functiondiffC at 0x000002018AC9D510>,<function functiondiffB at 0x000002018AC9D048>,<function functiondiffA at 0x000002018AC9D488>,,,,,569.8006853999977,642.3453808999984,None,626.9290209999999,None,634.3289072999978,None,14,001,2022_Jul_12_1607,2leo,2021.2.3,60.014535520271174,
3,42,Plan how to draw a painting ,Stimuli/42A1.jpg,Stimuli/42A2.jpg,Stimuli/42A3.jpg,Stimuli/42B1.jpg,Stimuli/42B2.jpg,Stimuli/42B3.jpg,Stimuli/42C1.jpg,Stimuli/42C2.jpg,Stimuli/42C3.jpg,,,,,0,4,4,42,,,,,,,,645.345017399999,None,646.3451152999987,None,652.3450295000002,None,"[0.066, -0.395]","[-0.377, 0.138]","[0.306, 0.255]","[0.304, -0.26]","[-0.378, -0.136]","[0.07, 0.393]","[-0.203, -0.347]","[-0.2, 0.346]","[0.399, -0.003]",,22.920004959993094,13.387219659995026,14.35406485999556,"[0.32314814814814813, 0.3824074074074074, -0.36944444444444446]","[-0.26666666666666666, 0.013888888888888888, 0.0962962962962963]","[1, 1, 1]","[0, 0, 0]","[0, 0, 0]","[13.376506799999333, 14.342951999999059, 22.909468599998945]",0.010033659993496258,22.919232859992917,['A2'],['B1'],['C3'],['blue'],['yellow'],['salmon'],677.0108701999998,None,9.0,3.2301955000002636,677.0108701999998,None,680.3126755999983,None,10.0,5.2642663000006,693.3440077999985,None,6.0,4.800456700002542,685.5952933000008,None,9.0,7.565527099999599,<function functionImportanceC at 0x000002018AACBA60>,<function functionImportanceB at 0x000002018AC9D7B8>,<function functionImportanceA at 0x000002018AC9DA60>,,,9.0,2.7647857000010845,1.0,4.800456700002542,-0.0,5.463155500001449,<function functiondiffB at 0x000002018AC9DB70>,<function functiondiffA at 0x000002018AC9D8C8>,<function functiondiffC at 0x000002018CB9A2F0>,,,,,653.6177888999991,703.4769500999973,None,706.2267632000003,None,697.9604784000003,None,14,001,2022_Jul_12_1607,2leo,2021.2.3,60.014535520271174,
3,13,Plan a romantic date this weekend,Stimuli/13A1.jpg,Stimuli/13A2.jpg,Stimuli/13A3.jpg,Stimuli/13B1.jpg,Stimuli/13B2.jpg,Stimuli/13B3.jpg,Stimuli/13C1.jpg,Stimuli/13C2.jpg,Stimuli/13C3.jpg,,,,,0,5,5,13,,,,,,,,708.3933665000004,None,709.3933705999989,None,715.3932729000007,None,"[-0.203, -0.347]","[0.399, -0.003]","[-0.2, 0.346]","[0.304, -0.26]","[0.07, 0.393]","[-0.378, -0.136]","[0.066, -0.395]","[0.306, 0.255]","[-0.377, 0.138]",,7.174625159997959,35.24083155999688,12.991646459999174,"[0.387037037037037, 0.1, 0.3398148148148148]","[-0.009259259259259259, -0.3296296296296296, -0.25462962962962965]","[1, 1, 1]","[0, 0, 0]","[0, 0, 0]","[7.1702632000015, 12.986863400001312, 35.23631949999981]",0.0038386599990190007,35.23990355999922,['A2'],['B1'],['C1'],['yellow'],['blue'],['salmon'],752.3088153999997,None,8.0,4.1639370000011695,752.3088153999997,None,756.5590812999981,None,3.0,7.014316799999506,763.5921371999975,None,8.0,3.8650753000001714,767.5086520000004,None,2.0,2.979704400000628,<function functionImportanceC at 0x000002018CB9A1E0>,<function functionImportanceA at 0x000002018AC9D620>,<function functionImportanceB at 0x000002018CB9AAE8>,,,-0.0,2.464616399996885,3.0,3.8650753000001714,8.0,6.43110450000313,<function functiondiffB at 0x000002018AC9DF28>,<function functiondiffA at 0x000002018AACB0D0>,<function functiondiffC at 0x000002018AC9DEA0>,,,,,716.5874105999974,776.8750440999975,None,779.3416747999981,None,770.4418535999976,None,14,001,2022_Jul_12_1607,2leo,2021.2.3,60.014535520271174,
3,21,Plan your sandwich for lunch,Stimuli/21A1.jpg,Stimuli/21A2.jpg,Stimuli/21A3.jpg,Stimuli/21B1.jpg,Stimuli/21B2.jpg,Stimuli/21B3.jpg,Stimuli/21C1.jpg,Stimuli/21C2.jpg,Stimuli/21C3.jpg,,,,,0,6,6,21,,,,,,,,784.8580944999994,None,785.858272999998,None,791.8583002999985,None,"[-0.378, -0.136]","[0.304, -0.26]","[0.07, 0.393]","[-0.377, 0.138]","[0.066, -0.395]","[0.306, 0.255]","[-0.2, 0.346]","[-0.203, -0.347]","[0.399, -0.003]",,12.115785640002287,10.482956340001692,14.466345440003352,"[0.3138888888888889, 0.3194444444444444, 0.3712962962962963]","[0.23796296296296296, -0.23981481481481481, 0.005555555555555556]","[1, 1, 1]","[0, 0, 0]","[0, 0, 0]","[10.465649800000392, 12.098980500002654, 14.448957399999927]",0.016190740003366955,14.465002040004038,['A2'],['B3'],['C3'],['yellow'],['salmon'],['blue'],807.9074827999975,None,8.0,4.096790599996893,807.9074827999975,None,812.0741976999998,None,8.0,6.298109100000147,818.3907289999988,None,8.0,6.28207889999976,824.6905336999989,None,8.0,7.665248600002087,<function functionImportanceC at 0x000002018CB9A268>,<function functionImportanceA at 0x000002018CB9A598>,<function functionImportanceB at 0x000002018CB9A8C8>,,,-0.0,3.6313864000003377,0.0,6.28207889999976,0.0,5.597854999999981,<function functiondiffA at 0x000002018AC9DE18>,<function functiondiffC at 0x000002018AC9D158>,<function functiondiffB at 0x000002018AC9DBF8>,,,,,792.9729057000004,832.3403479000008,None,835.9736138999979,None,839.0733808000005,None,14,001,2022_Jul_12_1607,2leo,2021.2.3,60.014535520271174,
3,1,Plan how to study for an exam,Stimuli/1A1.jpg,Stimuli/1A2.jpg,Stimuli/1A3.jpg,Stimuli/1B1.jpg,Stimuli/1B2.jpg,Stimuli/1B3.jpg,Stimuli/1C1.jpg,Stimuli/1C2.jpg,Stimuli/1C3.jpg,,,,,0,7,7,1,,,,,,,,844.1899727999989,None,845.1899044999991,None,851.1900117000005,None,"[0.399, -0.003]","[-0.203, -0.347]","[-0.2, 0.346]","[0.07, 0.393]","[0.304, -0.26]","[-0.378, -0.136]","[0.306, 0.255]","[0.066, -0.395]","[-0.377, 0.138]",,33.098585780000576,26.499553080000624,23.99937988000238,"[0.28888888888888886, -0.34074074074074073, 0.4101851851851852]","[0.2074074074074074, -0.16944444444444445, 0.0]","[1, 1, 1]","[0, 0, 0]","[0, 0, 0]","[23.982022200001666, 26.48230540000077, 33.08179200000086]",0.016407680002885172,33.098074080000515,['A1'],['B3'],['C1'],['blue'],['yellow'],['salmon'],885.8387877999994,None,6.0,3.097298500000761,885.8387877999994,None,888.972142999999,None,6.0,9.530950500000472,898.5552229999994,None,8.0,15.88201029999982,914.4556354999986,None,10.0,2.914930599999934,<function functionImportanceC at 0x000002018CB9A730>,<function functionImportanceA at 0x000002018CB9AC80>,<function functionImportanceB at 0x000002018CB9A378>,,,4.0,4.314148800000112,7.0,15.88201029999982,9.0,3.764504800001305,<function functiondiffA at 0x000002018CB9A488>,<function functiondiffB at 0x000002018CB9AE18>,<function functiondiffC at 0x000002018CB9A048>,,,,,852.2725886000007,917.3548312999992,None,925.4542698999976,None,921.6713373999992,None,14,001,2022_Jul_12_1607,2leo,2021.2.3,60.014535520271174,
3,12,Plan the ingredients to mix yourself a cocktail,Stimuli/12A1.jpg,Stimuli/12A2.jpg,Stimuli/12A3.jpg,Stimuli/12B1.jpg,Stimuli/12B2.jpg,Stimuli/12B3.jpg,Stimuli/12C1.jpg,Stimuli/12C2.jpg,Stimuli/12C3.jpg,,,,,0,8,8,12,,,,,,,,932.8041408999998,None,933.805801999999,None,939.8209633000006,None,"[-0.2, 0.346]","[-0.203, -0.347]","[0.399, -0.003]","[-0.378, -0.136]","[0.304, -0.26]","[0.07, 0.393]","[-0.377, 0.138]","[0.066, -0.395]","[0.306, 0.255]",,26.514535340000293,12.66527563999989,14.832119440001406,"[0.29907407407407405, 0.075, -0.1685185185185185]","[-0.2777777777777778, -0.36574074074074076, 0.2972222222222222]","[1, 1, 1]","[0, 0, 0]","[0, 0, 0]","[12.657018700003391, 14.823597100003099, 26.506618000003073]",0.007502240001485916,26.513964540001325,['A1'],['B2'],['C2'],['salmon'],['blue'],['yellow'],967.9365631000001,None,6.0,3.1469164000009187,967.9365631000001,None,971.1367332000009,None,7.0,11.347645099998772,982.5365032000009,None,9.0,3.8651816999990842,986.4029542999997,None,9.0,3.848557900000742,<function functionImportanceC at 0x00000201900C70D0>,<function functionImportanceA at 0x000002018CB9A950>,<function functionImportanceB at 0x000002018CB9AD08>,,,7.0,3.947653999999602,2.0,3.8651816999990842,3.0,4.514456200002314,<function functiondiffC at 0x000002018AC9D840>,<function functiondiffB at 0x000002018CB9AB70>,<function functiondiffA at 0x000002018CB9A7B8>,,,,,940.9442400000007,999.6025310999976,None,990.2361960999988,None,995.0694199999998,None,14,001,2022_Jul_12_1607,2leo,2021.2.3,60.014535520271174,
3,11,Plan a hike in nature on a free day,Stimuli/11A1.jpg,Stimuli/11A2.jpg,Stimuli/11A3.jpg,Stimuli/11B1.jpg,Stimuli/11B2.jpg,Stimuli/11B3.jpg,Stimuli/11C1.jpg,Stimuli/11C2.jpg,Stimuli/11C3.jpg,,,,,0,9,9,11,,,,,,,,1003.0689323000006,None,1004.0690575000008,None,1010.069070900001,None,"[0.07, 0.393]","[-0.378, -0.136]","[0.304, -0.26]","[0.399, -0.003]","[-0.2, 0.346]","[-0.203, -0.347]","[0.306, 0.255]","[-0.377, 0.138]","[0.066, -0.395]",,33.82535171999916,10.476011020000442,23.126251019999472,"[-0.2175925925925926, -0.32222222222222224, -0.3638888888888889]","[0.30648148148148147, 0.11203703703703703, -0.16203703703703703]","[1, 1, 1]","[0, 0, 0]","[0, 0, 0]","[10.47049280000283, 23.120312600000034, 33.82008390000192]",0.004738619998533977,33.82460851999713,['A2'],['B2'],['C2'],['blue'],['salmon'],['yellow'],1045.5180312999983,None,8.0,3.8967049999992014,1045.5180312999983,None,1049.4846402999974,None,2.0,4.098031800000172,1057.4677432999997,None,2.0,4.198416900002485,1053.601026299999,None,9.0,3.848222500000702,<function functionImportanceC at 0x000002018AC9D9D8>,<function functionImportanceB at 0x000002018CB9A158>,<function functionImportanceA at 0x000002018CB9A510>,,,7.0,3.3982204999992973,9.0,4.198416900002485,-0.0,3.4808917000009387,<function functiondiffB at 0x000002018CB9A840>,<function functiondiffC at 0x00000201900C7268>,<function functiondiffA at 0x000002018CB9AF28>,,,,,1011.2133711999995,1067.4175020000002,None,1065.1508959999992,None,1061.6509967999991,None,14,001,2022_Jul_12_1607,2leo,2021.2.3,60.014535520271174,
3,2,Plan which ingredients you want to use for cooking dinner today,Stimuli/2A1.jpg,Stimuli/2A2.jpg,Stimuli/2A3.jpg,Stimuli/2B1.jpg,Stimuli/2B2.jpg,Stimuli/2B3.jpg,Stimuli/2C1.jpg,Stimuli/2C2.jpg,Stimuli/2C3.jpg,,,,,0,10,10,2,,,,,,,,1070.3338688999975,None,1071.3338951999976,None,1077.333926299998,None,"[-0.203, -0.347]","[0.399, -0.003]","[-0.2, 0.346]","[0.066, -0.395]","[0.306, 0.255]","[-0.377, 0.138]","[0.304, -0.26]","[0.07, 0.393]","[-0.378, -0.136]",,28.35807203998411,30.55817433998527,31.35845083998356,"[-0.16203703703703703, 0.04537037037037037, 0.30277777777777776]","[-0.36203703703703705, -0.39814814814814814, -0.24814814814814815]","[1, 1, 1]","[0, 0, 0]","[0, 0, 0]","[28.345176200000424, 30.544961100000364, 31.345045500002016]",0.012439839985745493,31.3572170399857,['A1'],['B1'],['C1'],['yellow'],['salmon'],['blue'],1115.284459399998,None,7.0,3.2800590000006196,1115.284459399998,None,1132.3658665999974,None,7.0,5.398290100001759,1128.7824296,None,6.0,4.064997200002836,1121.8991377999992,None,6.0,9.03107120000277,<function functionImportanceB at 0x00000201900C7D08>,<function functionImportanceA at 0x000002018CB9ABF8>,<function functionImportanceC at 0x00000201900C76A8>,,,2.0,3.081063500001619,2.0,4.064997200002836,2.0,4.680891500000143,<function functiondiffB at 0x00000201900C78C8>,<function functiondiffC at 0x00000201900C79D8>,<function functiondiffA at 0x000002018CB9A0D0>,,,,,1083.4740992000006,1155.0652497999981,None,1142.0320726999998,None,1137.9823596999995,None,14,001,2022_Jul_12_1607,2leo,2021.2.3,60.014535520271174,
3,5,Plan a birthday party for your younger self when you turn eight,Stimuli/5A1.jpg,Stimuli/5A2.jpg,Stimuli/5A3.jpg,Stimuli/5B1.jpg,Stimuli/5B2.jpg,Stimuli/5B3.jpg,Stimuli/5C1.jpg,Stimuli/5C2.jpg,Stimuli/5C3.jpg,,,,,0,11,11,5,,,,,,,,1157.331592300001,None,1158.3318378000004,None,1164.3315842999982,None,"[-0.378, -0.136]","[0.07, 0.393]","[0.304, -0.26]","[-0.2, 0.346]","[0.399, -0.003]","[-0.203, -0.347]","[-0.377, 0.138]","[0.306, 0.255]","[0.066, -0.395]",,18.472757819978142,22.605889719976403,24.372929119977925,"[0.29907407407407405, 0.37222222222222223, -0.34814814814814815]","[-0.22777777777777777, -0.002777777777777778, 0.08703703703703704]","[1, 1, 1]","[0, 0, 0]","[0, 0, 0]","[18.460915699997713, 22.593900199997734, 24.36074799999915]",0.011246719979681075,24.371755019976263,['A3'],['B2'],['C1'],['blue'],['salmon'],['yellow'],1195.1471877000004,None,9.0,2.3298753000017314,1195.1471877000004,None,1207.130554899999,None,8.0,5.932012400000531,1200.1972977000005,None,2.0,8.897789599999669,1214.0469176999977,None,3.0,11.631539600002725,<function functionImportanceA at 0x00000201900C77B8>,<function functionImportanceC at 0x00000201900C7620>,<function functionImportanceB at 0x00000201900C7B70>,,,2.0,4.514280700001109,3.0,8.897789599999669,3.0,8.897700800000166,<function functiondiffB at 0x000002018CB9AEA0>,<function functiondiffA at 0x000002018CB9A620>,<function functiondiffC at 0x000002018CB9A9D8>,,,,,1170.3242489000004,1233.7298230999986,None,1237.6129112999988,None,1224.3800493999988,None,14,001,2022_Jul_12_1607,2leo,2021.2.3,60.014535520271174,
3,35,Plan how you want to do your grocery shopping ,Stimuli/35A1.jpg,Stimuli/35A2.jpg,Stimuli/35A3.jpg,Stimuli/35B1.jpg,Stimuli/35B2.jpg,Stimuli/35B3.jpg,Stimuli/35C1.jpg,Stimuli/35C2.jpg,Stimuli/35C3.jpg,,,,,0,12,12,35,,,,,,,,1239.7462022,None,1240.746267399998,None,1246.7462070000001,None,"[0.399, -0.003]","[-0.203, -0.347]","[-0.2, 0.346]","[0.306, 0.255]","[0.066, -0.395]","[-0.377, 0.138]","[0.07, 0.393]","[0.304, -0.26]","[-0.378, -0.136]",,17.15363127999808,22.688116580000496,15.65481537999949,"[-0.32592592592592595, 0.37962962962962965, 0.34444444444444444]","[-0.13425925925925927, -0.002777777777777778, 0.26481481481481484]","[1, 1, 1]","[0, 0, 0]","[0, 0, 0]","[15.651762499997858, 17.151261399998475, 22.68547430000035]",0.0019693799986271188,22.68663097999888,['A1'],['B1'],['C3'],['blue'],['yellow'],['salmon'],1271.1785711999983,None,8.0,2.762230599997565,1271.1785711999983,None,1274.0285901999996,None,10.0,3.6977685000019846,1277.8286317999991,None,10.0,2.8483864000008907,1280.7117010000002,None,10.0,3.3150948000002245,<function functionImportanceC at 0x000002018CB9AA60>,<function functionImportanceA at 0x00000201900C7378>,<function functionImportanceB at 0x00000201900C7F28>,,,2.0,6.114564200001041,3.0,2.8483864000008907,2.0,5.148260300000402,<function functiondiffA at 0x000002018AACB950>,<function functiondiffC at 0x00000201900C71E0>,<function functiondiffB at 0x000002018CB9A6A8>,,,,,1248.0113628,1283.8952666999976,None,1290.0283075999978,None,1293.861680099999,None,14,001,2022_Jul_12_1607,2leo,2021.2.3,60.014535520271174,
3,18,Plan your Saturday night ,Stimuli/18A1.jpg,Stimuli/18A2.jpg,Stimuli/18A3.jpg,Stimuli/18B1.jpg,Stimuli/18B2.jpg,Stimuli/18B3.jpg,Stimuli/18C1.jpg,Stimuli/18C2.jpg,Stimuli/18C3.jpg,,,,,0,13,13,18,,,,,,,,1298.5113323000005,None,1299.5113347999977,None,1305.5113835999982,None,"[-0.203, -0.347]","[0.399, -0.003]","[-0.2, 0.346]","[0.304, -0.26]","[0.07, 0.393]","[-0.378, -0.136]","[0.066, -0.395]","[0.306, 0.255]","[-0.377, 0.138]",,10.700239379999402,3.384101979998377,19.383793080000032,"[0.06666666666666667, -0.18796296296296297, -0.3592592592592593]","[0.34629629629629627, -0.3453703703703704, 0.09907407407407408]","[1, 1, 1]","[0, 0, 0]","[0, 0, 0]","[3.3831857000004675, 10.699615900000936, 19.382509900002333]",0.00010177999865845777,19.382540880000306,['A1'],['B2'],['C3'],['blue'],['yellow'],['salmon'],1326.4772010999986,None,8.0,3.163710799999535,1326.4772010999986,None,1337.1437650999978,None,1.0,3.0154016999986197,1332.5937906,None,7.0,4.531708099999378,1329.6772235999997,None,10.0,2.864204100002098,<function functionImportanceB at 0x00000201900C7D90>,<function functionImportanceA at 0x00000201900C7EA0>,<function functionImportanceC at 0x00000201900C7510>,,,1.0,7.364359500003047,1.0,4.531708099999378,0.0,7.047845500001131,<function functiondiffB at 0x00000201900C7BF8>,<function functiondiffC at 0x000002018E5957B8>,<function functiondiffA at 0x00000201900C7158>,,,,,1306.6125408000007,1350.7933821999977,None,1347.210145099998,None,1340.143616199999,None,14,001,2022_Jul_12_1607,2leo,2021.2.3,60.014535520271174,
3,7,Plan your Sunday breakfast ,Stimuli/7A1.jpg,Stimuli/7A2.jpg,Stimuli/7A3.jpg,Stimuli/7B1.jpg,Stimuli/7B2.jpg,Stimuli/7B3.jpg,Stimuli/7C1.jpg,Stimuli/7C2.jpg,Stimuli/7C3.jpg,,,,,0,14,14,7,,,,,,,,1357.6764724999994,None,1358.6763186999997,None,1364.676485,None,"[0.306, 0.255]","[-0.377, 0.138]","[0.066, -0.395]","[0.07, 0.393]","[-0.378, -0.136]","[0.304, -0.26]","[0.399, -0.003]","[-0.2, 0.346]","[-0.203, -0.347]",,12.002252019978187,10.833720119979262,15.60059211997941,"[-0.36203703703703705, 0.09814814814814815, -0.2064814814814815]","[-0.1648148148148148, -0.4185185185185185, -0.3416666666666667]","[1, 1, 1]","[0, 0, 0]","[0, 0, 0]","[10.824741000000358, 11.992331400000694, 15.59130599999844]",0.008221919979405357,15.599274819978746,['A3'],['B2'],['C3'],['salmon'],['yellow'],['blue'],1386.7255084999997,None,8.0,4.613691000002291,1386.7255084999997,None,1392.6090105999974,None,6.0,8.18109270000059,1407.475174700001,None,8.0,5.364929700001085,1401.4584431000003,None,6.0,6.098215099998924,<function functionImportanceC at 0x000002018E595268>,<function functionImportanceB at 0x000002018E595598>,<function functionImportanceA at 0x00000201900C7E18>,,,-0.0,4.197738099999697,6.0,5.364929700001085,6.0,3.5978341000009095,<function functiondiffA at 0x00000201900C7A60>,<function functiondiffC at 0x00000201900C7840>,<function functiondiffB at 0x00000201900C7AE8>,,,,,1370.6704021000005,1411.5919380999985,None,1415.658212899998,None,1434.9078980999984,None,14,001,2022_Jul_12_1607,2leo,2021.2.3,60.014535520271174,
3,4,Plan a game night at your place,Stimuli/4A1.jpg,Stimuli/4A2.jpg,Stimuli/4A3.jpg,Stimuli/4B1.jpg,Stimuli/4B2.jpg,Stimuli/4B3.jpg,Stimuli/4C1.jpg,Stimuli/4C2.jpg,Stimuli/4C3.jpg,,,,,0,15,15,4,,,,,,,,1442.5075737999978,None,1443.5077227000002,None,1449.5075149999975,None,"[0.066, -0.395]","[-0.377, 0.138]","[0.306, 0.255]","[-0.203, -0.347]","[-0.2, 0.346]","[0.399, -0.003]","[0.304, -0.26]","[-0.378, -0.136]","[0.07, 0.393]",,13.3753814799893,3.642296579990216,8.526014879989816,"[-0.20185185185185187, 0.0824074074074074, 0.075]","[-0.34814814814814815, 0.32222222222222224, -0.39814814814814814]","[1, 1, 1]","[0, 0, 0]","[0, 0, 0]","[3.6372984999979963, 8.52063569999882, 13.370651799999905]",0.004272379988833563,13.374704779987951,['A1'],['B1'],['C3'],['salmon'],['yellow'],['blue'],1466.8734542999991,None,8.0,2.197005399997579,1466.8734542999991,None,1479.3396856,None,10.0,3.3982084000017494,1475.2267868999988,None,3.0,3.781887299999653,1469.1736942999996,None,9.0,5.014611399998103,<function functionImportanceB at 0x000002018E595730>,<function functionImportanceA at 0x000002018E595EA0>,<function functionImportanceC at 0x000002018E595048>,,,2.0,3.2644230000005336,-0.0,3.781887299999653,4.0,4.381313000001683,<function functiondiffC at 0x000002018E595D08>,<function functiondiffB at 0x000002018E595C80>,<function functiondiffA at 0x000002018E595378>,,,,,1453.0365361000004,1489.6063469,None,1481.7233978000004,None,1484.8899103999975,None,14,001,2022_Jul_12_1607,2leo,2021.2.3,60.014535520271174,
3,19,Plan how you want your garden to look like,Stimuli/19A1.jpg,Stimuli/19A2.jpg,Stimuli/19A3.jpg,Stimuli/19B1.jpg,Stimuli/19B2.jpg,Stimuli/19B3.jpg,Stimuli/19C1.jpg,Stimuli/19C2.jpg,Stimuli/19C3.jpg,,,,,0,16,16,19,,,,,,,,1492.0727995999987,None,1493.072862699999,None,1499.072710299999,None,"[0.304, -0.26]","[0.07, 0.393]","[-0.378, -0.136]","[0.066, -0.395]","[0.306, 0.255]","[-0.377, 0.138]","[-0.203, -0.347]","[0.399, -0.003]","[-0.2, 0.346]",,8.161777799992706,6.9618611999940185,15.245209999993676,"[0.1, 0.062037037037037036, -0.19907407407407407]","[-0.39814814814814814, 0.3814814814814815, -0.39351851851851855]","[1, 1, 1]","[0, 0, 0]","[0, 0, 0]","[6.955393899999763, 8.155446299999312, 15.238442199999554]",0.005794899992906721,15.244229499992798,['A2'],['B1'],['C1'],['yellow'],['blue'],['salmon'],1518.4554547999978,None,8.0,2.2139074000006076,1518.4554547999978,None,1522.1722154999989,None,6.0,7.197455400000763,1528.0054113000006,None,8.0,3.3318531999975676,1532.4049999999988,None,10.0,2.74858630000017,<function functionImportanceC at 0x000002018E595D90>,<function functionImportanceA at 0x000002018E595B70>,<function functionImportanceB at 0x000002018E595620>,,,3.0,4.698031200001424,9.0,3.3318531999975676,3.0,7.547629799999413,<function functiondiffA at 0x000002018E595F28>,<function functiondiffB at 0x000002018E595BF8>,<function functiondiffC at 0x000002018E595840>,,,,,1502.7515920999977,1534.055274800001,None,1546.6883133999982,None,1539.0052725999994,None,14,001,2022_Jul_12_1607,2leo,2021.2.3,60.014535520271174,
3,31,Plan your order at a restaurant    ,Stimuli/31A1.jpg,Stimuli/31A2.jpg,Stimuli/31A3.jpg,Stimuli/31B1.jpg,Stimuli/31B2.jpg,Stimuli/31B3.jpg,Stimuli/31C1.jpg,Stimuli/31C2.jpg,Stimuli/31C3.jpg,,,,,0,17,17,31,,,,,,,,1552.3042769999993,None,1553.3045194999977,None,1559.3048739000005,None,"[0.304, -0.26]","[-0.378, -0.136]","[0.07, 0.393]","[-0.203, -0.347]","[-0.2, 0.346]","[0.399, -0.003]","[0.066, -0.395]","[-0.377, 0.138]","[0.306, 0.255]",,21.60374667999713,20.53742267999769,16.187969979997433,"[0.30277777777777776, 0.3435185185185185, 0.2833333333333333]","[0.24166666666666667, -0.022222222222222223, -0.23703703703703705]","[1, 1, 1]","[0, 0, 0]","[0, 0, 0]","[16.184877799998503, 20.534543300000223, 21.601314799998363]",0.0019816799976979382,21.60314007999841,['A1'],['B3'],['C3'],['blue'],['salmon'],['yellow'],1583.987197999999,None,6.0,2.713522900001408,1583.987197999999,None,1596.2035975,None,9.0,3.9983606999994663,1592.0537624999997,None,8.0,5.432095800002571,1586.8039953000007,None,10.0,3.8648754000023473,<function functionImportanceB at 0x00000201900C7950>,<function functionImportanceA at 0x00000201900C7730>,<function functionImportanceC at 0x000002018E595A60>,,,9.0,2.9314765999988595,3.0,5.432095800002571,7.0,4.181801599999744,<function functiondiffC at 0x00000201900C7400>,<function functiondiffB at 0x00000201900C7C80>,<function functiondiffA at 0x000002018E5951E0>,,,,,1561.9212834999998,1608.1866744,None,1600.0868864999975,None,1603.6532626999979,None,14,001,2022_Jul_12_1607,2leo,2021.2.3,60.014535520271174,
3,14,Plan your own Pizza for dinner,Stimuli/14A1.jpg,Stimuli/14A2.jpg,Stimuli/14A3.jpg,Stimuli/14B1.jpg,Stimuli/14B2.jpg,Stimuli/14B3.jpg,Stimuli/14C1.jpg,Stimuli/14C2.jpg,Stimuli/14C3.jpg,,,,,0,18,18,14,,,,,,,,1610.3027545000004,None,1611.3029720999984,None,1617.3032003000008,None,"[0.07, 0.393]","[-0.378, -0.136]","[0.304, -0.26]","[0.399, -0.003]","[-0.2, 0.346]","[-0.203, -0.347]","[0.306, 0.255]","[-0.377, 0.138]","[0.066, -0.395]",,21.446498779998365,7.263596279997728,12.713582479998877,"[0.41203703703703703, -0.37592592592592594, -0.3194444444444444]","[-0.03148148148148148, 0.14722222222222223, -0.10092592592592593]","[1, 1, 1]","[0, 0, 0]","[0, 0, 0]","[7.256100399998104, 12.70572379999794, 21.439176299998508]",0.006669279999186983,21.445693279998522,['A2'],['B1'],['C2'],['yellow'],['blue'],['salmon'],1640.4022942999982,None,7.0,2.2135130999995454,1640.4022942999982,None,1653.3355319000002,None,9.0,2.681621299998369,1642.719118000001,None,6.0,6.66468210000312,1649.4187337999974,None,9.0,3.965156099999149,<function functionImportanceA at 0x00000201900C72F0>,<function functionImportanceB at 0x000002018E5950D0>,<function functionImportanceC at 0x00000201902AE048>,,,7.0,7.69775170000139,4.0,6.66468210000312,-0.0,2.6644567000003008,<function functiondiffA at 0x000002018E595950>,<function functiondiffC at 0x00000201900C7488>,<function functiondiffB at 0x000002018AACB378>,,,,,1618.4779337,1656.0187490999997,None,1663.7351543999976,None,1672.5350185999996,None,14,001,2022_Jul_12_1607,2leo,2021.2.3,60.014535520271174,
3,3,Plan a movie night with a friend,Stimuli/3A1.jpg,Stimuli/3A2.jpg,Stimuli/3A3.jpg,Stimuli/3B1.jpg,Stimuli/3B2.jpg,Stimuli/3B3.jpg,Stimuli/3C1.jpg,Stimuli/3C2.jpg,Stimuli/3C3.jpg,,,,,0,19,19,3,,,,,,,,1674.7010641999987,None,1675.7014622999995,None,1681.7015613000003,None,"[-0.378, -0.136]","[0.07, 0.393]","[0.304, -0.26]","[-0.2, 0.346]","[0.399, -0.003]","[-0.203, -0.347]","[-0.377, 0.138]","[0.306, 0.255]","[0.066, -0.395]",,12.316839899987826,8.750460899987957,3.634194699989166,"[0.31574074074074077, -0.18703703703703703, 0.2777777777777778]","[0.2777777777777778, -0.3296296296296296, -0.2833333333333333]","[1, 1, 1]","[0, 0, 0]","[0, 0, 0]","[3.616614700000355, 8.733044399999926, 12.299675000002026]",0.016580899988184683,12.315936199989665,['A3'],['B3'],['C2'],['salmon'],['blue'],['yellow'],1698.050654999999,None,9.0,3.6473746999981813,1698.050654999999,None,1703.487244699998,None,10.0,6.214355999996769,1708.000604599998,None,9.0,3.415103799998178,1712.1672074999988,None,9.0,3.231746599998587,<function functionImportanceC at 0x00000201902AE6A8>,<function functionImportanceA at 0x00000201902AE510>,<function functionImportanceB at 0x00000201902AE730>,,,0.0,3.231227600001148,0.0,3.415103799998178,6.0,8.031220299999404,<function functiondiffC at 0x000002018E595AE8>,<function functiondiffB at 0x000002018E595E18>,<function functiondiffA at 0x000002018E595158>,,,,,1685.2849784999999,1725.7835207999997,None,1714.9838399,None,1718.1003915000001,None,14,001,2022_Jul_12_1607,2leo,2021.2.3,60.014535520271174,
3,22,Plan a beach day with your friends,Stimuli/22A1.jpg,Stimuli/22A2.jpg,Stimuli/22A3.jpg,Stimuli/22B1.jpg,Stimuli/22B2.jpg,Stimuli/22B3.jpg,Stimuli/22C1.jpg,Stimuli/22C2.jpg,Stimuli/22C3.jpg,,,,,0,20,20,22,,,,,,,,1728.533064799998,None,1729.5332825000005,None,1735.5332053999991,None,"[0.304, -0.26]","[-0.378, -0.136]","[0.07, 0.393]","[0.066, -0.395]","[-0.377, 0.138]","[0.306, 0.255]","[-0.203, -0.347]","[-0.2, 0.346]","[0.399, -0.003]",,15.127877679999074,19.745017080000252,13.628456379999989,"[-0.1574074074074074, 0.32592592592592595, 0.1111111111111111]","[-0.337037037037037, -0.30833333333333335, -0.37407407407407406]","[1, 1, 1]","[0, 0, 0]","[0, 0, 0]","[13.613445899998624, 15.113392200000817, 19.730257999999594]",0.014085279999562772,19.744088979998196,['A1'],['B1'],['C1'],['salmon'],['yellow'],['blue'],1756.9158948999975,None,8.0,3.3300454999989597,1756.9158948999975,None,1760.3826004999974,None,6.0,11.59763860000021,1771.9321003000005,None,3.0,3.015099399999599,1774.9989588999997,None,7.0,2.448684200000571,<function functionImportanceC at 0x00000201902AE620>,<function functionImportanceA at 0x00000201902AE7B8>,<function functionImportanceB at 0x00000201902AEAE8>,,,7.0,5.664294599999266,2.0,3.015099399999599,8.0,2.1479550000003655,<function functiondiffC at 0x00000201902AE9D8>,<function functiondiffB at 0x00000201902AEA60>,<function functiondiffA at 0x00000201902AED08>,,,,,1736.7016445000008,1782.9821353000007,None,1777.3989552999992,None,1780.8155455999986,None,14,001,2022_Jul_12_1607,2leo,2021.2.3,60.014535520271174,
3,40,Plan to see a sports event ,Stimuli/40A1.jpg,Stimuli/40A2.jpg,Stimuli/40A3.jpg,Stimuli/40B1.jpg,Stimuli/40B2.jpg,Stimuli/40B3.jpg,Stimuli/40C1.jpg,Stimuli/40C2.jpg,Stimuli/40C3.jpg,,,,,0,21,21,40,,,,,,,,1788.165026499999,None,1789.1650618999993,None,1795.1651343999984,None,"[-0.203, -0.347]","[-0.2, 0.346]","[0.399, -0.003]","[0.066, -0.395]","[-0.377, 0.138]","[0.306, 0.255]","[0.304, -0.26]","[-0.378, -0.136]","[0.07, 0.393]",,17.013208619999205,6.913615319997916,13.046723419996852,"[0.07962962962962963, -0.3574074074074074, 0.35]","[-0.3972222222222222, -0.12222222222222222, -0.014814814814814815]","[1, 1, 1]","[0, 0, 0]","[0, 0, 0]","[6.898127000000386, 13.030923800000892, 16.99776380000185]",0.014818219999142457,17.012481319998187,['A3'],['B1'],['C2'],['salmon'],['blue'],['yellow'],1813.947802999999,None,10.0,2.430348399997456,1813.947802999999,None,1822.8142836999978,None,1.0,2.3821232999980566,1816.464231599999,None,9.0,4.347911200002272,1820.9477012999996,None,10.0,1.9817490999994334,<function functionImportanceA at 0x000002018E595510>,<function functionImportanceB at 0x00000201902AEB70>,<function functionImportanceC at 0x00000201907740D0>,,,6.0,3.847668299997167,2.0,4.347911200002272,-0.0,2.6313068000017665,<function functiondiffA at 0x00000201902AE378>,<function functiondiffC at 0x00000201902AE158>,<function functiondiffB at 0x00000201902AEEA0>,,,,,1796.4662079000009,1825.1806684000003,None,1829.0473555999997,None,1834.5140083999977,None,14,001,2022_Jul_12_1607,2leo,2021.2.3,60.014535520271174,
3,0,Plan a barbecue,Stimuli/0A1.jpg,Stimuli/0A2.jpg,Stimuli/0A3.jpg,Stimuli/0B1.jpg,Stimuli/0B2.jpg,Stimuli/0B3.jpg,Stimuli/0C1.jpg,Stimuli/0C2.jpg,Stimuli/0C3.jpg,,,,,0,22,22,0,,,,,,,,1836.6304853000001,None,1837.6305433999987,None,1843.6305967999979,None,"[0.399, -0.003]","[-0.203, -0.347]","[-0.2, 0.346]","[0.07, 0.393]","[0.304, -0.26]","[-0.378, -0.136]","[0.306, 0.255]","[0.066, -0.395]","[-0.377, 0.138]",,12.285662459995365,7.43631935999656,11.419648459996097,"[0.0787037037037037, 0.08888888888888889, -0.14351851851851852]","[0.37037037037037035, -0.375, -0.31296296296296294]","[1, 1, 1]","[0, 0, 0]","[0, 0, 0]","[7.426162399999157, 11.409147700000176, 12.275690899998153]",0.009486759998253547,12.284779859997798,['A2'],['B1'],['C2'],['blue'],['yellow'],['salmon'],1858.8298173000003,None,10.0,1.8807116000025417,1858.8298173000003,None,1871.7128381000002,None,8.0,2.765480400001252,1868.1130983999974,None,8.0,4.915246000000479,1860.7801474999978,None,7.0,5.980789799999911,<function functionImportanceB at 0x00000201902AE950>,<function functionImportanceA at 0x00000201902AE840>,<function functionImportanceC at 0x00000201907749D8>,,,-0.0,3.21454299999823,1.0,4.915246000000479,1.0,3.4479327000008198,<function functiondiffC at 0x000002018E5958C8>,<function functiondiffB at 0x00000201902AE488>,<function functiondiffA at 0x00000201902AEF28>,,,,,1846.0829917999981,1881.696041700001,None,1874.4628976999993,None,1877.8292901999994,None,14,001,2022_Jul_12_1607,2leo,2021.2.3,60.014535520271174,
3,8,Plan the interior of your living-room ,Stimuli/8A1.jpg,Stimuli/8A2.jpg,Stimuli/8A3.jpg,Stimuli/8B1.jpg,Stimuli/8B2.jpg,Stimuli/8B3.jpg,Stimuli/8C1.jpg,Stimuli/8C2.jpg,Stimuli/8C3.jpg,,,,,0,23,23,8,,,,,,,,1884.0455954999998,None,1885.0475364999984,None,1891.0625703000005,None,"[-0.2, 0.346]","[0.399, -0.003]","[-0.203, -0.347]","[-0.378, -0.136]","[0.07, 0.393]","[0.304, -0.26]","[-0.377, 0.138]","[0.306, 0.255]","[0.066, -0.395]",,12.038888019986189,22.024019019983825,18.156214719983836,"[-0.15462962962962962, 0.12777777777777777, -0.33611111111111114]","[0.2796296296296296, -0.3685185185185185, -0.16296296296296298]","[1, 1, 1]","[0, 0, 0]","[0, 0, 0]","[12.027299999997922, 18.14395909999803, 22.012204099999508]",0.01106321998668136,22.023069319984643,['A1'],['B1'],['C3'],['blue'],['salmon'],['yellow'],1918.3617071000008,None,4.0,2.3952040000003763,1918.3617071000008,None,1930.944825399998,None,9.0,4.9310795000019425,1926.2950478999992,None,10.0,2.7322256000006746,1922.528456600001,None,10.0,5.41455969999879,<function functionImportanceB at 0x0000020190774D90>,<function functionImportanceA at 0x00000201902AE1E0>,<function functionImportanceC at 0x0000020190774D08>,,,3.0,3.8309193999994022,8.0,2.7322256000006746,10.0,2.2311878000000434,<function functiondiffA at 0x00000201902AE400>,<function functiondiffC at 0x0000020190774048>,<function functiondiffB at 0x00000201902AE0D0>,,,,,1895.8856400000004,1933.9280346999985,None,1938.3462766999983,None,1941.2611775999976,None,14,001,2022_Jul_12_1607,2leo,2021.2.3,60.014535520271174,
3,36,Plan your shopping for new clothing,Stimuli/36A1.jpg,Stimuli/36A2.jpg,Stimuli/36A3.jpg,Stimuli/36B1.jpg,Stimuli/36B2.jpg,Stimuli/36B3.jpg,Stimuli/36C1.jpg,Stimuli/36C2.jpg,Stimuli/36C3.jpg,,,,,0,24,24,36,,,,,,,,1942.4940984999994,None,1943.4944999,None,1949.4944001000003,None,"[0.304, -0.26]","[-0.378, -0.136]","[0.07, 0.393]","[-0.203, -0.347]","[-0.2, 0.346]","[0.399, -0.003]","[0.066, -0.395]","[-0.377, 0.138]","[0.306, 0.255]",,17.999185900000157,12.749191099999734,7.266482499999256,"[0.37222222222222223, -0.1935185185185185, -0.40555555555555556]","[0.2601851851851852, -0.3416666666666667, -0.18888888888888888]","[1, 1, 1]","[0, 0, 0]","[0, 0, 0]","[7.249221099998977, 12.73233049999908, 17.98222149999856]",0.01616909999938798,17.998245399998268,['A2'],['B1'],['C3'],['salmon'],['blue'],['yellow'],1969.126898999999,None,8.0,2.8954537000026903,1969.126898999999,None,1980.1601907999975,None,10.0,2.898677699999098,1977.1435848,None,7.0,2.9311067999988154,1972.1104063999992,None,4.0,5.048217999999906,<function functionImportanceB at 0x00000201907742F0>,<function functionImportanceA at 0x0000020190774378>,<function functionImportanceC at 0x0000020190774268>,,,2.0,14.431040200001007,1.0,2.9311067999988154,2.0,3.4643490000016754,<function functiondiffC at 0x00000201907747B8>,<function functiondiffA at 0x000002018E5952F0>,<function functiondiffB at 0x00000201907746A8>,,,,,1950.6426711999993,1986.3100364999991,None,1982.9767819000008,None,2000.7597901000008,None,14,001,2022_Jul_12_1607,2leo,2021.2.3,60.014535520271174,
3,20,Plan a tea party with your friends,Stimuli/20A1.jpg,Stimuli/20A2.jpg,Stimuli/20A3.jpg,Stimuli/20B1.jpg,Stimuli/20B2.jpg,Stimuli/20B3.jpg,Stimuli/20C1.jpg,Stimuli/20C2.jpg,Stimuli/20C3.jpg,,,,,0,25,25,20,,,,,,,,2003.7427911999985,None,2004.7426713999994,None,2010.7427721999993,None,"[-0.2, 0.346]","[-0.203, -0.347]","[0.399, -0.003]","[-0.377, 0.138]","[0.066, -0.395]","[0.306, 0.255]","[-0.378, -0.136]","[0.304, -0.26]","[0.07, 0.393]",,7.801983539990033,14.285301139992953,10.235630739989574,"[-0.19444444444444445, 0.337037037037037, -0.37592592592592594]","[-0.33796296296296297, -0.27685185185185185, 0.12962962962962962]","[1, 1, 1]","[0, 0, 0]","[0, 0, 0]","[7.792305499999202, 10.225440099999105, 14.275468199997704]",0.009134739990258822,14.284356839991233,['A2'],['B1'],['C2'],['yellow'],['salmon'],['blue'],2029.0420758,None,7.0,2.76378509999995,2029.0420758,None,2031.8587689999986,None,9.0,3.731229599998187,2035.6421555999987,None,9.0,2.098713899998984,2040.1750194999986,None,9.0,5.0982636000007915,<function functionImportanceC at 0x00000201902AE2F0>,<function functionImportanceA at 0x0000020190774730>,<function functionImportanceB at 0x0000020190774BF8>,,,-0.0,5.364982600000076,3.0,2.098713899998984,8.0,4.797617700001865,<function functiondiffC at 0x0000020190774510>,<function functiondiffB at 0x0000020190774400>,<function functiondiffA at 0x0000020190774158>,,,,,2014.3016547999978,2051.3749432000004,None,2042.8251792999981,None,2047.0918638999974,None,14,001,2022_Jul_12_1607,2leo,2021.2.3,60.014535520271174,
3,15,Plan your own Pasta for lunch,Stimuli/15A1.jpg,Stimuli/15A2.jpg,Stimuli/15A3.jpg,Stimuli/15B1.jpg,Stimuli/15B2.jpg,Stimuli/15B3.jpg,Stimuli/15C1.jpg,Stimuli/15C2.jpg,Stimuli/15C3.jpg,,,,,0,26,26,15,,,,,,,,2056.2578012999984,None,2057.2579119,None,2063.2582865000004,None,"[-0.377, 0.138]","[0.066, -0.395]","[0.306, 0.255]","[-0.2, 0.346]","[-0.203, -0.347]","[0.399, -0.003]","[-0.378, -0.136]","[0.304, -0.26]","[0.07, 0.393]",,15.794971179999266,17.411792480001168,18.612171579999995,"[-0.36666666666666664, -0.16018518518518518, 0.08611111111111111]","[0.09166666666666666, -0.31296296296296294, 0.35555555555555557]","[1, 1, 1]","[0, 0, 0]","[0, 0, 0]","[15.78036559999964, 17.396848699998372, 18.596899699998175]",0.01418238000042038,18.61073727999974,['A1'],['B2'],['C3'],['salmon'],['yellow'],['blue'],2084.2572475999987,None,8.0,2.3467333000007784,2084.2572475999987,None,2093.142124599999,None,9.0,3.2317536999980803,2090.490707000001,None,9.0,1.9986465999973007,2086.7237559999994,None,9.0,3.7312499999970896,<function functionImportanceB at 0x00000201902AEBF8>,<function functionImportanceA at 0x0000020190774AE8>,<function functionImportanceC at 0x0000020194CC4950>,,,3.0,4.097537500001636,6.0,1.9986465999973007,1.0,6.698100199999317,<function functiondiffA at 0x00000201907741E0>,<function functiondiffB at 0x0000020190774C80>,<function functiondiffC at 0x0000020194CC4B70>,,,,,2065.191319999998,2095.6571165999994,None,2106.6235275,None,2099.7737075999976,None,14,001,2022_Jul_12_1607,2leo,2021.2.3,60.014535520271174,
3,10,Plan a restaurant visit with your family on the weekend ,Stimuli/10A1.jpg,Stimuli/10A2.jpg,Stimuli/10A3.jpg,Stimuli/10B1.jpg,Stimuli/10B2.jpg,Stimuli/10B3.jpg,Stimuli/10C1.jpg,Stimuli/10C2.jpg,Stimuli/10C3.jpg,,,,,0,27,27,10,,,,,,,,2109.3897837000004,None,2110.3902418,None,2116.389886099998,None,"[-0.2, 0.346]","[-0.203, -0.347]","[0.399, -0.003]","[-0.378, -0.136]","[0.304, -0.26]","[0.07, 0.393]","[-0.377, 0.138]","[0.066, -0.395]","[0.306, 0.255]",,34.86258657999133,25.029945679991215,2.6311743799924443,"[0.33055555555555555, -0.3814814814814815, -0.19907407407407407]","[0.24722222222222223, -0.14537037037037037, 0.3148148148148148]","[1, 1, 1]","[0, 0, 0]","[0, 0, 0]","[2.6234148999974423, 25.02254819999871, 34.85551189999751]",0.00666367998928763,34.86210977999144,['A1'],['B1'],['C3'],['blue'],['yellow'],['salmon'],2155.6553129999993,None,3.0,3.1808291000015743,2155.6553129999993,None,2158.9054990999975,None,7.0,5.047419100003026,2164.088783799998,None,4.0,3.7653061999990314,2170.4886103999997,None,6.0,7.014933300000848,<function functionImportanceC at 0x0000020194CC4488>,<function functionImportanceA at 0x00000201902AEE18>,<function functionImportanceB at 0x0000020194CC40D0>,,,8.0,2.665148500000214,1.0,3.7653061999990314,8.0,4.847533100000874,<function functiondiffB at 0x0000020190774598>,<function functiondiffC at 0x0000020190774840>,<function functiondiffA at 0x0000020190774B70>,,,,,2120.334070599998,2183.3214707999978,None,2179.621717599999,None,2175.5384381000003,None,14,001,2022_Jul_12_1607,2leo,2021.2.3,60.014535520271174,
3,37,Plan your cleaning routine ,Stimuli/37A1.jpg,Stimuli/37A2.jpg,Stimuli/37A3.jpg,Stimuli/37B1.jpg,Stimuli/37B2.jpg,Stimuli/37B3.jpg,Stimuli/37C1.jpg,Stimuli/37C2.jpg,Stimuli/37C3.jpg,,,,,0,28,28,37,,,,,,,,2185.4877185999976,None,2186.487891099998,None,2192.4880223,None,"[0.304, -0.26]","[-0.378, -0.136]","[0.07, 0.393]","[-0.203, -0.347]","[-0.2, 0.346]","[0.399, -0.003]","[0.066, -0.395]","[-0.377, 0.138]","[0.306, 0.255]",,12.113914319998003,10.628863919995638,6.895770719995198,"[-0.3416666666666667, -0.1814814814814815, -0.34444444444444444]","[0.10555555555555556, 0.30185185185185187, -0.08796296296296297]","[1, 1, 1]","[0, 0, 0]","[0, 0, 0]","[6.880581299999903, 10.613927900001727, 12.098392399999284]",0.0141694199955964,12.111532619997888,['A2'],['B2'],['C2'],['salmon'],['blue'],['yellow'],2206.220679099999,None,10.0,2.2023569000011776,2206.220679099999,None,2208.470814199998,None,3.0,4.514445999997406,2213.020652299998,None,9.0,2.414976600000955,2215.5207397999984,None,9.0,2.599164599996584,<function functionImportanceC at 0x0000020190774488>,<function functionImportanceA at 0x0000020190774E18>,<function functionImportanceB at 0x0000020190774A60>,,,-0.0,2.697473100000934,1.0,2.414976600000955,1.0,2.797705600001791,<function functiondiffA at 0x0000020194CC4378>,<function functiondiffB at 0x0000020194CC4048>,<function functiondiffC at 0x0000020194CC49D8>,,,,,2193.6235721999983,2218.0372446,None,2223.570580399999,None,2220.7539512999974,None,14,001,2022_Jul_12_1607,2leo,2021.2.3,60.014535520271174,
3,41,Plan how you want to have dinner tonight ,Stimuli/41A1.jpg,Stimuli/41A2.jpg,Stimuli/41A3.jpg,Stimuli/41B1.jpg,Stimuli/41B2.jpg,Stimuli/41B3.jpg,Stimuli/41C1.jpg,Stimuli/41C2.jpg,Stimuli/41C3.jpg,,,,,0,29,29,41,,,,,,,,2226.3865917000003,None,2227.386825499998,None,2233.3869128000006,None,"[0.304, -0.26]","[0.07, 0.393]","[-0.378, -0.136]","[-0.203, -0.347]","[0.399, -0.003]","[-0.2, 0.346]","[0.066, -0.395]","[0.306, 0.255]","[-0.377, 0.138]",,6.344091400002071,9.160685400001967,7.9774538000019675,"[0.025925925925925925, 0.07962962962962963, -0.21666666666666667]","[0.34629629629629627, -0.425, -0.3527777777777778]","[1, 1, 1]","[0, 0, 0]","[0, 0, 0]","[6.329969099999289, 7.96287669999947, 9.146413300000859]",0.013516099999833386,9.159705699999904,['A2'],['B1'],['C1'],['blue'],['salmon'],['yellow'],2244.3363465,None,9.0,2.6307204000004276,2244.3363465,None,2250.4865001,None,6.0,3.598121600000013,2247.053149899999,None,10.0,3.264421299998503,2253.9364447000007,None,7.0,2.7650461000012,<function functionImportanceA at 0x00000201902AE268>,<function functionImportanceC at 0x00000201902AE8C8>,<function functionImportanceB at 0x00000201902AED90>,,,-0.0,1.7145559999989928,-0.0,3.264421299998503,-0.0,2.864212899999984,<function functiondiffB at 0x0000020194CC4268>,<function functiondiffC at 0x0000020194CC4158>,<function functiondiffA at 0x0000020194CC4400>,,,,,2234.7081717,2262.1528239,None,2259.6028688000006,None,2256.686393600001,None,14,001,2022_Jul_12_1607,2leo,2021.2.3,60.014535520271174,
3,27,Plan what festival to visit with your friends,Stimuli/27A1.jpg,Stimuli/27A2.jpg,Stimuli/27A3.jpg,Stimuli/27B1.jpg,Stimuli/27B2.jpg,Stimuli/27B3.jpg,Stimuli/27C1.jpg,Stimuli/27C2.jpg,Stimuli/27C3.jpg,,,,,0,30,30,27,,,,,,,,2267.2360733999994,None,2268.2360756999988,None,2274.2358079000005,None,"[-0.377, 0.138]","[0.306, 0.255]","[0.066, -0.395]","[-0.2, 0.346]","[0.399, -0.003]","[-0.203, -0.347]","[-0.378, -0.136]","[0.07, 0.393]","[0.304, -0.26]",,10.891899259997444,12.608725959998992,14.808702859998448,"[-0.37962962962962965, 0.387037037037037, -0.3972222222222222]","[0.15185185185185185, -0.012962962962962963, -0.14074074074074075]","[1, 1, 1]","[0, 0, 0]","[0, 0, 0]","[10.878971900001488, 12.59540879999986, 14.795255299999553]",0.01251285999751417,14.80763155999739,['A1'],['B2'],['C1'],['yellow'],['blue'],['salmon'],2290.6186382999986,None,7.0,2.330799900002603,2290.6186382999986,None,2303.501752699998,None,9.0,3.3652997000026517,2301.0851982999993,None,9.0,2.3822022000022116,2293.0186584000003,None,8.0,8.064605999999912,<function functionImportanceB at 0x0000020194CC4F28>,<function functionImportanceA at 0x00000201902AEC80>,<function functionImportanceC at 0x0000020194CC46A8>,,,8.0,3.33076820000133,2.0,2.3822022000022116,1.0,2.3803574000012304,<function functiondiffA at 0x000002018E5956A8>,<function functiondiffC at 0x0000020190774620>,<function functiondiffB at 0x00000201907748C8>,,,,,2275.3384038999975,2306.8517098999982,None,2310.2016313999993,None,2312.8180915999983,None,14,001,2022_Jul_12_1607,2leo,2021.2.3,60.014535520271174,
3,16,Plan a delicious cake for the birthday of a friend,Stimuli/16A1.jpg,Stimuli/16A2.jpg,Stimuli/16A3.jpg,Stimuli/16B1.jpg,Stimuli/16B2.jpg,Stimuli/16B3.jpg,Stimuli/16C1.jpg,Stimuli/16C2.jpg,Stimuli/16C3.jpg,,,,,0,31,31,16,,,,,,,,2314.7178275999977,None,2315.717974299998,None,2321.7181567000007,None,"[0.399, -0.003]","[-0.2, 0.346]","[-0.203, -0.347]","[0.07, 0.393]","[-0.378, -0.136]","[0.304, -0.26]","[0.306, 0.255]","[-0.377, 0.138]","[0.066, -0.395]",,8.16399889999957,11.814632699999493,15.031569399998261,"[0.37407407407407406, 0.32314814814814813, 0.05462962962962963]","[-0.020370370370370372, -0.27314814814814814, -0.3712962962962963]","[1, 1, 1]","[0, 0, 0]","[0, 0, 0]","[8.15646310000011, 11.80666040000142, 15.023381800001516]",0.007111200000508688,15.03023100000064,['A1'],['B3'],['C3'],['salmon'],['blue'],['yellow'],2338.6340232000002,None,7.0,2.546911800000089,2338.6340232000002,None,2346.5504268000004,None,8.0,2.348364400000719,2344.251055599998,None,8.0,2.1983772999992652,2341.4716166,None,8.0,2.9979168999998365,<function functionImportanceB at 0x000002018E5959D8>,<function functionImportanceA at 0x000002018CB9A400>,<function functionImportanceC at 0x000002019519C048>,,,0.0,2.681028700000752,0.0,2.1983772999992652,-0.0,3.814418600002682,<function functiondiffA at 0x0000020194CC4510>,<function functiondiffB at 0x0000020194CC4620>,<function functiondiffC at 0x0000020194CC41E0>,,,,,2323.1265778999987,2348.8170863999985,None,2355.3669569999984,None,2351.567221199999,None,14,001,2022_Jul_12_1607,2leo,2021.2.3,60.014535520271174,
3,39,Plan what kind of watch you want to buy,Stimuli/39A1.jpg,Stimuli/39A2.jpg,Stimuli/39A3.jpg,Stimuli/39B1.jpg,Stimuli/39B2.jpg,Stimuli/39B3.jpg,Stimuli/39C1.jpg,Stimuli/39C2.jpg,Stimuli/39C3.jpg,,,,,0,32,32,39,,,,,,,,2357.449866499999,None,2358.450434999999,None,2364.450206999998,None,"[-0.2, 0.346]","[-0.203, -0.347]","[0.399, -0.003]","[-0.378, -0.136]","[0.304, -0.26]","[0.07, 0.393]","[-0.377, 0.138]","[0.066, -0.395]","[0.306, 0.255]",,13.808693819995824,15.60643391999838,12.5567517199961,"[0.11018518518518519, 0.3962962962962963, 0.30833333333333335]","[-0.36203703703703705, -0.016666666666666666, -0.27037037037037037]","[1, 1, 1]","[0, 0, 0]","[0, 0, 0]","[12.552641299997049, 13.804003099998226, 15.602627799999027]",0.003040519997739466,15.605589219998365,['A3'],['B2'],['C2'],['blue'],['salmon'],['yellow'],2381.682720599998,None,8.0,2.0804570999971475,2381.682720599998,None,2390.3828749999993,None,7.0,5.998251999997592,2383.8327537000005,None,8.0,3.4142864999994345,2387.2523371999996,None,8.0,3.047972700001992,<function functionImportanceA at 0x0000020194CC4AE8>,<function functionImportanceB at 0x0000020190774F28>,<function functionImportanceC at 0x000002018CB9AD90>,,,1.0,12.131010299999616,7.0,3.4142864999994345,6.0,7.364329600000929,<function functiondiffB at 0x00000201900C7048>,<function functiondiffC at 0x000002019519C6A8>,<function functiondiffA at 0x00000201902AE598>,,,,,2365.5970463999984,2411.8488626,None,2403.6992253999997,None,2396.3160274,None,14,001,2022_Jul_12_1607,2leo,2021.2.3,60.014535520271174,
3,28,Plan a one-week camping trip in Spain,Stimuli/28A1.jpg,Stimuli/28A2.jpg,Stimuli/28A3.jpg,Stimuli/28B1.jpg,Stimuli/28B2.jpg,Stimuli/28B3.jpg,Stimuli/28C1.jpg,Stimuli/28C2.jpg,Stimuli/28C3.jpg,,,,,0,33,33,28,,,,,,,,2423.4981174999994,None,2424.498535999999,None,2430.4985271000005,None,"[0.07, 0.393]","[-0.378, -0.136]","[0.304, -0.26]","[0.306, 0.255]","[-0.377, 0.138]","[0.066, -0.395]","[0.399, -0.003]","[-0.2, 0.346]","[-0.203, -0.347]",,16.000540459997865,6.085615559997677,12.684753259996796,"[-0.3537037037037037, -0.16203703703703703, 0.06481481481481481]","[0.10740740740740741, -0.3490740740740741, 0.3333333333333333]","[1, 1, 1]","[0, 0, 0]","[0, 0, 0]","[6.075436300001456, 12.674999099999695, 15.991482900000847]",0.00862945999688236,15.999960659999488,['A1'],['B2'],['C3'],['yellow'],['salmon'],['blue'],2448.0809348000003,None,7.0,2.5304402000001573,2448.0809348000003,None,2450.681177399998,None,4.0,4.164333899996564,2457.4478093,None,4.0,3.0152766999999585,2454.864253399999,None,10.0,2.5650739000011527,<function functionImportanceC at 0x000002019519C598>,<function functionImportanceB at 0x000002019519C2F0>,<function functionImportanceA at 0x0000020190774950>,,,3.0,8.197425399997883,2.0,3.0152766999999585,0.0,1.9150660000013886,<function functiondiffA at 0x0000020194CC42F0>,<function functiondiffB at 0x0000020194CC48C8>,<function functiondiffC at 0x000002019519C0D0>,,,,,2431.604530599998,2460.447760799998,None,2470.597278999998,None,2468.664080899998,None,14,001,2022_Jul_12_1607,2leo,2021.2.3,60.014535520271174,
3,25,Plan how you want to read a book in your free time ,Stimuli/25A1.jpg,Stimuli/25A2.jpg,Stimuli/25A3.jpg,Stimuli/25B1.jpg,Stimuli/25B2.jpg,Stimuli/25B3.jpg,Stimuli/25C1.jpg,Stimuli/25C2.jpg,Stimuli/25C3.jpg,,,,,0,34,34,25,,,,,,,,2474.6300936000007,None,2475.630398999998,None,2481.6303793999978,None,"[-0.378, -0.136]","[0.304, -0.26]","[0.07, 0.393]","[-0.2, 0.346]","[-0.203, -0.347]","[0.399, -0.003]","[-0.377, 0.138]","[0.066, -0.395]","[0.306, 0.255]",,4.870361359997332,2.555055259996152,7.4050558599956275,"[-0.2074074074074074, -0.39351851851851855, 0.3314814814814815]","[-0.35185185185185186, -0.17407407407407408, 0.24722222222222223]","[1, 1, 1]","[0, 0, 0]","[0, 0, 0]","[2.568286599998828, 4.868046599996887, 7.402092999996967]",0.0018532599970058072,7.403466559997469,['A1'],['B2'],['C3'],['blue'],['yellow'],['salmon'],2490.963359900001,None,10.0,2.529676300000574,2490.963359900001,None,2493.8474810000007,None,10.0,3.164517100001831,2501.7129786000005,None,10.0,2.064897000000201,2496.7800592999993,None,6.0,4.94837280000138,<function functionImportanceC at 0x000002019519C510>,<function functionImportanceB at 0x000002019519C8C8>,<function functionImportanceA at 0x000002019519CB70>,,,-0.0,2.031159599999228,-0.0,2.064897000000201,-0.0,3.0641281999996863,<function functiondiffB at 0x000002019519CD90>,<function functiondiffC at 0x000002019519CE18>,<function functiondiffA at 0x000002019519C488>,,,,,2483.0928145,2511.3296052999976,None,2506.929666199998,None,2503.779811299999,None,14,001,2022_Jul_12_1607,2leo,2021.2.3,60.014535520271174,
3,17,Plan a day in Barcelona with a friend who is new to the city,Stimuli/17A1.jpg,Stimuli/17A2.jpg,Stimuli/17A3.jpg,Stimuli/17B1.jpg,Stimuli/17B2.jpg,Stimuli/17B3.jpg,Stimuli/17C1.jpg,Stimuli/17C2.jpg,Stimuli/17C3.jpg,,,,,0,35,35,17,,,,,,,,2512.8792221999975,None,2513.879301000001,None,2519.8795548999988,None,"[0.304, -0.26]","[-0.378, -0.136]","[0.07, 0.393]","[0.066, -0.395]","[-0.377, 0.138]","[0.306, 0.255]","[-0.203, -0.347]","[-0.2, 0.346]","[0.399, -0.003]",,9.511398299997381,10.328342599997995,6.711745099997643,"[-0.23425925925925925, -0.3768518518518518, -0.3509259259259259]","[0.33796296296296297, -0.13240740740740742, 0.13333333333333333]","[1, 1, 1]","[0, 0, 0]","[0, 0, 0]","[6.69676029999755, 9.496938899999805, 10.313636099999712]",0.013957200000731973,10.327298599997448,['A2'],['B2'],['C2'],['yellow'],['salmon'],['blue'],2531.8287179,None,8.0,3.263545800000429,2531.8287179,None,2543.612175899998,None,8.0,2.6978504000035173,2535.195646100001,None,8.0,8.432268100001238,2546.3287509,None,10.0,2.5320184999982303,<function functionImportanceA at 0x000002019519CBF8>,<function functionImportanceC at 0x000002019519C9D8>,<function functionImportanceB at 0x000002019519C7B8>,,,4.0,5.648213899999973,3.0,8.432268100001238,-0.0,2.2974770000000717,<function functiondiffB at 0x000002019519CD08>,<function functiondiffA at 0x000002019519CF28>,<function functiondiffC at 0x000002019519C950>,,,,,2521.029636200001,2551.161656299999,None,2556.8285245000006,None,2548.8452599999982,None,14,001,2022_Jul_12_1607,2leo,2021.2.3,60.014535520271174,
3,32,Plan how you want to relax after a workday,Stimuli/32A1.jpg,Stimuli/32A2.jpg,Stimuli/32A3.jpg,Stimuli/32B1.jpg,Stimuli/32B2.jpg,Stimuli/32B3.jpg,Stimuli/32C1.jpg,Stimuli/32C2.jpg,Stimuli/32C3.jpg,,,,,0,36,36,32,,,,,,,,2561.1615026,None,2562.1614095000004,None,2568.1614322999994,None,"[-0.377, 0.138]","[0.066, -0.395]","[0.306, 0.255]","[-0.2, 0.346]","[-0.203, -0.347]","[0.399, -0.003]","[-0.378, -0.136]","[0.304, -0.26]","[0.07, 0.393]",,6.156587419991411,11.239835119991767,13.791964819989516,"[0.08518518518518518, -0.1925925925925926, 0.2777777777777778]","[-0.3712962962962963, -0.3675925925925926, -0.2388888888888889]","[1, 1, 1]","[0, 0, 0]","[0, 0, 0]","[6.153001500002574, 11.236037000002398, 13.787841000001208]",0.0030527199887728784,13.789040519990522,['A2'],['B2'],['C2'],['yellow'],['blue'],['salmon'],2585.427576899998,None,8.0,1.9954966000004788,2585.427576899998,None,2596.777294299998,None,4.0,3.648609799998667,2588.5776282999977,None,8.0,9.2809957999998,2601.2269794999993,None,10.0,3.5654393000004347,<function functionImportanceA at 0x000002019519CAE8>,<function functionImportanceC at 0x0000020190774EA0>,<function functionImportanceB at 0x0000020194CC4598>,,,2.0,3.348057899998821,3.0,9.2809957999998,0.0,2.58084549999694,<function functiondiffC at 0x000002019519CEA0>,<function functiondiffA at 0x000002019519C158>,<function functiondiffB at 0x000002019519C730>,,,,,2571.157036599998,2620.4101434000004,None,2603.9937825999987,None,2623.593393899999,None,14,001,2022_Jul_12_1607,2leo,2021.2.3,60.014535520271174,
3,23,Plan a city trip,Stimuli/23A1.jpg,Stimuli/23A2.jpg,Stimuli/23A3.jpg,Stimuli/23B1.jpg,Stimuli/23B2.jpg,Stimuli/23B3.jpg,Stimuli/23C1.jpg,Stimuli/23C2.jpg,Stimuli/23C3.jpg,,,,,0,37,37,23,,,,,,,,2625.526495899998,None,2626.5264554999994,None,2632.5264561000004,None,"[-0.378, -0.136]","[0.07, 0.393]","[0.304, -0.26]","[-0.2, 0.346]","[0.399, -0.003]","[-0.203, -0.347]","[-0.377, 0.138]","[0.306, 0.255]","[0.066, -0.395]",,14.693086199997197,9.442810399996233,7.209750899994106,"[-0.33611111111111114, -0.1675925925925926, -0.3416666666666667]","[0.15092592592592594, 0.287962962962963, -0.11851851851851852]","[1, 1, 1]","[0, 0, 0]","[0, 0, 0]","[7.204131400001643, 9.437502799999493, 14.688052400000743]",0.00462889999471372,14.692088099996909,['A1'],['B1'],['C1'],['yellow'],['salmon'],['blue'],2648.8591111999995,None,10.0,2.646116500000062,2648.8591111999995,None,2654.7591235,None,10.0,3.0160032999992836,2657.7757346,None,10.0,2.5821175999990373,2651.5932203999982,None,9.0,3.1307627000023786,<function functionImportanceB at 0x00000201955B6730>,<function functionImportanceC at 0x00000201955B61E0>,<function functionImportanceA at 0x0000020194CC4D08>,,,2.0,3.9479348999993817,3.0,2.5821175999990373,-0.0,2.8147783000022173,<function functiondiffA at 0x000002019519CC80>,<function functiondiffC at 0x00000201955B6A60>,<function functiondiffB at 0x0000020194CC4840>,,,,,2633.6867456,2660.3256354999976,None,2664.2922800999986,None,2667.4254791999992,None,14,001,2022_Jul_12_1607,2leo,2021.2.3,60.014535520271174,
3,29,Plan a day in the mountains ,Stimuli/29A1.jpg,Stimuli/29A2.jpg,Stimuli/29A3.jpg,Stimuli/29B1.jpg,Stimuli/29B2.jpg,Stimuli/29B3.jpg,Stimuli/29C1.jpg,Stimuli/29C2.jpg,Stimuli/29C3.jpg,,,,,0,38,38,29,,,,,,,,2669.7595685999986,None,2670.7585999999974,None,2676.7588389999983,None,"[-0.203, -0.347]","[-0.2, 0.346]","[0.399, -0.003]","[0.066, -0.395]","[-0.377, 0.138]","[0.306, 0.255]","[0.304, -0.26]","[-0.378, -0.136]","[0.07, 0.393]",,16.644206799999665,9.961443000000145,14.778087099999539,"[0.0712962962962963, 0.2851851851851852, -0.18796296296296297]","[-0.3731481481481482, -0.25462962962962965, 0.2898148148148148]","[1, 1, 1]","[0, 0, 0]","[0, 0, 0]","[9.955189500000415, 14.771569200001977, 16.638013300002058]",0.0054902999982004985,16.64342039999974,['A2'],['B1'],['C1'],['yellow'],['blue'],['salmon'],2695.0412467999995,None,8.0,2.2971332000015536,2695.0412467999995,None,2697.4080302999973,None,9.0,4.647865900002216,2702.124544399998,None,9.0,6.165041000000201,2708.2410703999994,None,3.0,2.7816323999977612,<function functionImportanceC at 0x00000201955B6950>,<function functionImportanceA at 0x00000201955B6378>,<function functionImportanceB at 0x00000201955B69D8>,,,2.0,2.9639704000001075,7.0,6.165041000000201,3.0,4.714469099999405,<function functiondiffA at 0x000002019519C620>,<function functiondiffB at 0x000002019519CA60>,<function functiondiffC at 0x00000201955B6C80>,,,,,2677.9179234999974,2711.0243945,None,2718.7240217,None,2714.007718500001,None,14,001,2022_Jul_12_1607,2leo,2021.2.3,60.014535520271174,
3,9,Plan a picnic with friends,Stimuli/9A1.jpg,Stimuli/9A2.jpg,Stimuli/9A3.jpg,Stimuli/9B1.jpg,Stimuli/9B2.jpg,Stimuli/9B3.jpg,Stimuli/9C1.jpg,Stimuli/9C2.jpg,Stimuli/9C3.jpg,,,,,0,39,39,9,,,,,,,,2721.1747361999987,None,2722.1739786,None,2728.1739187999992,None,"[0.399, -0.003]","[-0.203, -0.347]","[-0.2, 0.346]","[0.306, 0.255]","[0.066, -0.395]","[-0.377, 0.138]","[0.07, 0.393]","[0.304, -0.26]","[-0.378, -0.136]",,10.29372137998871,5.3442942799883895,8.194990779986256,"[0.09259259259259259, 0.35185185185185186, 0.425]","[-0.4, -0.2638888888888889, 0.001851851851851852]","[1, 1, 1]","[0, 0, 0]","[0, 0, 0]","[5.338288400002057, 8.188805400001002, 10.288132900001074]",0.005192879987589549,10.293308779986546,['A1'],['B2'],['C2'],['salmon'],['yellow'],['blue'],2744.2900004999974,None,8.0,2.4641405000002123,2744.2900004999974,None,2748.2579592,None,6.0,7.064177699998254,2759.1064215000006,None,7.0,4.731542599998647,2755.1899502999986,None,9.0,3.698475799999869,<function functionImportanceC at 0x00000201955B6158>,<function functionImportanceB at 0x00000201955B66A8>,<function functionImportanceA at 0x00000201955B68C8>,,,1.0,3.2641862999989826,0.0,4.731542599998647,0.0,2.8808353999993415,<function functiondiffB at 0x000002019519C268>,<function functiondiffC at 0x000002019519C400>,<function functiondiffA at 0x000002019519C378>,,,,,2733.5366240999974,2768.4060346000006,None,2765.6895944999997,None,2762.7063501999983,None,14,001,2022_Jul_12_1607,2leo,2021.2.3,60.014535520271174,
3,38,Plan how you want to go for a run,Stimuli/38A1.jpg,Stimuli/38A2.jpg,Stimuli/38A3.jpg,Stimuli/38B1.jpg,Stimuli/38B2.jpg,Stimuli/38B3.jpg,Stimuli/38C1.jpg,Stimuli/38C2.jpg,Stimuli/38C3.jpg,,,,,0,40,40,38,,,,,,,,2770.7234492999996,None,2771.722673199998,None,2777.722735299998,None,"[0.07, 0.393]","[-0.378, -0.136]","[0.304, -0.26]","[0.399, -0.003]","[-0.2, 0.346]","[-0.203, -0.347]","[0.306, 0.255]","[-0.377, 0.138]","[0.066, -0.395]",,8.569977899998776,7.237142499998299,5.1870759000012185,"[-0.375, -0.2, -0.3194444444444444]","[0.1259259259259259, 0.31203703703703706, -0.10740740740740741]","[1, 1, 1]","[0, 0, 0]","[0, 0, 0]","[5.184453500001837, 7.2347838999994565, 8.56785149999996]",0.0016047999997681472,8.569422100001248,['A2'],['B2'],['C2'],['blue'],['yellow'],['salmon'],2788.0220636999984,None,10.0,1.6301644999985,2788.0220636999984,None,2792.905543099998,None,1.0,2.9153883999970276,2789.7722219999996,None,10.0,3.0313978000012867,2795.7388326,None,5.0,6.081880800000363,<function functionImportanceA at 0x00000201955B6840>,<function functionImportanceC at 0x0000020195A9C048>,<function functionImportanceB at 0x00000201955B6598>,,,0.0,2.4311420999983966,1.0,3.0313978000012867,3.0,5.36418440000125,<function functiondiffB at 0x00000201955B6E18>,<function functiondiffC at 0x00000201955B6F28>,<function functiondiffA at 0x00000201955B6D08>,,,,,2778.9715241999984,2810.288405299998,None,2807.1719311999987,None,2801.7720477999974,None,14,001,2022_Jul_12_1607,2leo,2021.2.3,60.014535520271174,
3,6,Plan your wedding,Stimuli/6A1.jpg,Stimuli/6A2.jpg,Stimuli/6A3.jpg,Stimuli/6B1.jpg,Stimuli/6B2.jpg,Stimuli/6B3.jpg,Stimuli/6C1.jpg,Stimuli/6C2.jpg,Stimuli/6C3.jpg,,,,,0,41,41,6,,,,,,,,2812.2391848000007,None,2813.2382787999995,None,2819.2381908999996,None,"[0.399, -0.003]","[-0.2, 0.346]","[-0.203, -0.347]","[0.306, 0.255]","[-0.377, 0.138]","[0.066, -0.395]","[0.07, 0.393]","[-0.378, -0.136]","[0.304, -0.26]",,5.711189379988355,11.044372079988534,8.645013779987494,"[-0.17037037037037037, 0.30833333333333335, 0.28055555555555556]","[0.34814814814814815, -0.24814814814814815, 0.24166666666666667]","[1, 1, 1]","[0, 0, 0]","[0, 0, 0]","[5.696919599999092, 8.630173999998078, 11.029942400000436]",0.013681479988008505,11.043526779987587,['A2'],['B1'],['C3'],['yellow'],['blue'],['salmon'],2835.837644799998,None,9.0,2.347365500001615,2835.837644799998,None,2839.4375340999977,None,4.0,6.147982899998169,2853.6369836999984,None,9.0,7.432059699996898,2846.0708648,None,4.0,8.04813219999778,<function functionImportanceC at 0x0000020194CC4BF8>,<function functionImportanceB at 0x00000201955B6488>,<function functionImportanceA at 0x00000201955B6B70>,,,-0.0,2.8813993000003393,1.0,7.432059699996898,2.0,3.364490100000694,<function functiondiffB at 0x00000201955B6268>,<function functiondiffA at 0x00000201955B60D0>,<function functiondiffC at 0x0000020195A9C378>,,,,,2824.3427935,2863.5869796999978,None,2866.570347500001,None,2860.287107,None,14,001,2022_Jul_12_1607,2leo,2021.2.3,60.014535520271174,
3,34,Plan what car you want to buy,Stimuli/34A1.jpg,Stimuli/34A2.jpg,Stimuli/34A3.jpg,Stimuli/34B1.jpg,Stimuli/34B2.jpg,Stimuli/34B3.jpg,Stimuli/34C1.jpg,Stimuli/34C2.jpg,Stimuli/34C3.jpg,,,,,0,42,42,34,,,,,,,,2869.9211092000005,None,2870.9200423,None,2876.9201102000006,None,"[0.399, -0.003]","[-0.2, 0.346]","[-0.203, -0.347]","[0.306, 0.255]","[-0.377, 0.138]","[0.066, -0.395]","[0.07, 0.393]","[-0.378, -0.136]","[0.304, -0.26]",,5.9777831999927,4.111205299996072,10.245027799996024,"[0.31203703703703706, 0.38333333333333336, 0.2814814814814815]","[0.25092592592592594, -0.026851851851851852, -0.275]","[1, 1, 1]","[0, 0, 0]","[0, 0, 0]","[4.096712000002299, 5.9635874000014155, 10.230134100002033]",0.013772499994956888,10.243765099992743,['A1'],['B1'],['C3'],['yellow'],['blue'],['salmon'],2890.786051700001,None,8.0,4.613613399997121,2890.786051700001,None,2903.6706097999995,None,7.0,4.364938599999732,2901.252630499999,None,9.0,3.4151888999986113,2896.485980999998,None,9.0,4.713937900000019,<function functionImportanceB at 0x0000020195A9C9D8>,<function functionImportanceA at 0x0000020194CC4EA0>,<function functionImportanceC at 0x0000020195A9C620>,,,0.0,2.881011199999193,7.0,3.4151888999986113,1.0,2.831354800000554,<function functiondiffB at 0x00000201955B6510>,<function functiondiffC at 0x00000201955B6400>,<function functiondiffA at 0x00000201955B62F0>,,,,,2880.0888960999982,2915.485703399998,None,2910.8358303999994,None,2908.2357847999992,None,14,001,2022_Jul_12_1607,2leo,2021.2.3,60.014535520271174,
3,30,Plan your sport work out for tomorrow,Stimuli/30A1.jpg,Stimuli/30A2.jpg,Stimuli/30A3.jpg,Stimuli/30B1.jpg,Stimuli/30B2.jpg,Stimuli/30B3.jpg,Stimuli/30C1.jpg,Stimuli/30C2.jpg,Stimuli/30C3.jpg,,,,,0,43,43,30,,,,,,,,2917.5368013000007,None,2918.552061300001,None,2924.552211800001,None,"[-0.203, -0.347]","[-0.2, 0.346]","[0.399, -0.003]","[0.304, -0.26]","[-0.378, -0.136]","[0.07, 0.393]","[0.066, -0.395]","[-0.377, 0.138]","[0.306, 0.255]",,10.859070080001402,9.65739398000369,7.25776758000211,"[-0.35, 0.33055555555555555, 0.3509259259259259]","[0.12407407407407407, -0.2916666666666667, 0.004629629629629629]","[1, 1, 1]","[0, 0, 0]","[0, 0, 0]","[7.244789299998956, 9.644718499999726, 10.846509300001344]",0.011979880004219012,10.856788780001807,['A3'],['B1'],['C2'],['salmon'],['yellow'],['blue'],2937.0514963999995,None,10.0,3.0289058000016666,2937.0514963999995,None,2947.2014278999995,None,9.0,2.6649058000002697,2940.1849570999984,None,10.0,3.798484399998415,2944.034882,None,7.0,3.214782999999443,<function functionImportanceA at 0x00000201955B67B8>,<function functionImportanceB at 0x0000020195A9CD90>,<function functionImportanceC at 0x0000020195A9C950>,,,1.0,3.414427399999113,1.0,3.798484399998415,-0.0,2.364808599999378,<function functiondiffA at 0x00000201955B6620>,<function functiondiffC at 0x0000020195A9C0D0>,<function functiondiffB at 0x00000201955B6D90>,,,,,2925.721491199998,2949.8516028999984,None,2953.2845745999985,None,2955.5680127999985,None,14,001,2022_Jul_12_1607,2leo,2021.2.3,60.014535520271174,
3,24,Plan your Monday morning on a workday ,Stimuli/24A1.jpg,Stimuli/24A2.jpg,Stimuli/24A3.jpg,Stimuli/24B1.jpg,Stimuli/24B2.jpg,Stimuli/24B3.jpg,Stimuli/24C1.jpg,Stimuli/24C2.jpg,Stimuli/24C3.jpg,,,,,0,44,44,24,,,,,,,,2957.4363742999994,None,2958.4510956999984,None,2964.4511667999977,None,"[0.066, -0.395]","[-0.377, 0.138]","[0.306, 0.255]","[-0.203, -0.347]","[-0.2, 0.346]","[0.399, -0.003]","[0.304, -0.26]","[-0.378, -0.136]","[0.07, 0.393]",,3.6405031600006623,6.090739460003533,9.640880560000369,"[0.09166666666666666, 0.35185185185185186, 0.07407407407407407]","[-0.39814814814814814, -0.008333333333333333, 0.4]","[1, 1, 1]","[0, 0, 0]","[0, 0, 0]","[3.6282744000018283, 6.078149699998903, 9.627908000002208]",0.011702260002493858,9.639487460000964,['A1'],['B3'],['C3'],['yellow'],['blue'],['salmon'],2975.667060399999,None,10.0,2.1298573999993096,2975.667060399999,None,2982.7338543000005,None,10.0,2.365464199996495,2977.8507482999994,None,10.0,2.5477525999995123,2980.4339588999974,None,10.0,2.2819645999989007,<function functionImportanceA at 0x0000020195A9C510>,<function functionImportanceB at 0x0000020195A9CAE8>,<function functionImportanceC at 0x0000020195A9C400>,,,-0.0,1.647574499998882,-0.0,2.5477525999995123,0.0,8.397746300001018,<function functiondiffA at 0x0000020195A9C158>,<function functiondiffB at 0x0000020195A9CE18>,<function functiondiffC at 0x00000201955B6BF8>,,,,,2965.553860699998,2985.083905399999,None,2995.1669784999976,None,2986.7505103000003,None,14,001,2022_Jul_12_1607,2leo,2021.2.3,60.014535520271174,
