Condition,N_Scenario,written_scenario,ImageA1,ImageA2,ImageA3,ImageB1,ImageB2,ImageB3,ImageC1,ImageC2,ImageC3,trials_2.thisRepN,trials_2.thisTrialN,trials_2.thisN,trials_2.thisIndex,trial.thisRepN,trial.thisTrialN,trial.thisN,trial.thisIndex,button_2.started,button_2.stopped,button_2.numClicks,button_2.timesOn,button_2.timesOff,text.started,text.stopped,fixationcross1_started,fixationcross1_stopped,Scenario_started,Scenario_stopped,fixationcross2_started,fixationcross2_stopped,A1pos,A2pos,A3pos,B1pos,B2pos,B3pos,C1pos,C2pos,C3pos,﻿Imagesdecision_started,decisiontimeA,decisiontimeB,decisiontimeC,mouse_x,mouse_y,mouse_leftButton,mouse_midButton,mouse_rightButton,mouse_time,mouse_started,mouse_stopped,clicked_optionA,clicked_optionB,clicked_optionC,colour_category_A,colour_category_B,colour_category_C,question_confidence_started,question_confidence_stopped,slider_confidence_response,slider_confidence_rt,slider_confidence_started,slider_confidence_stopped,question_valueB_started,question_valueB_stopped,slider_valueB_response,slider_valueB_rt,question_valueC_started,question_valueC_stopped,slider_valueC_response,slider_valueC_rt,question_valueA_started,question_valueA_stopped,slider_valueA_response,slider_valueA_rt,Importance_First,Importance_Second,Importance_Third,question_diff_started,question_diff_stopped,slider_diffA_response,slider_diffA_rt,slider_diffB_response,slider_diffB_rt,slider_diffC_response,slider_diffC_rt,diff_First,diff_Second,diff_Third,button_3_started,button_3_stopped,text_2_started,text_2_stopped,Imagesdecision_started,question_diffA_started,question_diffA_stopped,question_diffB_started,question_diffB_stopped,question_diffC_started,question_diffC_stopped,participant,session,date,expName,psychopyVersion,frameRate,
3,2,Plan a party to celebrate your birthday,Stimuli/2A1t.jpg,Stimuli/2A2t.jpg,Stimuli/2A3t.jpg,Stimuli/2B1t.jpg,Stimuli/2B2t.jpg,Stimuli/2B3t.jpg,Stimuli/2C1t.jpg,Stimuli/2C2t.jpg,Stimuli/2C3t.jpg,0,0,0,0,,,,,33.11265230000208,None,1,[3.222930299998552],[3.222933799999737],33.11265230000208,None,89.52134139999907,None,90.53122400000211,None,96.53136390000145,None,"[-0.203, -0.347]","[-0.2, 0.346]","[0.399, -0.003]","[0.066, -0.395]","[-0.377, 0.138]","[0.306, 0.255]","[0.304, -0.26]","[-0.378, -0.136]","[0.07, 0.393]",100.54046310000194,17.24123503998635,24.824678539986053,9.291899639985786,"[-0.3888888888888889, -0.14537037037037037, 0.3277777777777778]","[-0.13425925925925927, 0.3638888888888889, 0.25925925925925924]","[1, 1, 1]","[0, 0, 0]","[0, 0, 0]","[9.288327700000082, 17.23817659999986, 24.821277200000623]",0.002521439982956508,24.823735439986194,['A2'],['B3'],['C2'],['yellow'],['salmon'],['blue'],125.83007920000091,None,7.0,5.580687599998782,125.83007920000091,None,133.0301623000014,None,2.0,9.463877700000012,140.97960909999892,None,5.0,7.498412599998119,149.7793633000001,None,7.0,6.714860100000806,<function functionImportanceBt at 0x0000020784421A60>,<function functionImportanceCt at 0x0000020784421D08>,<function functionImportanceAt at 0x0000020784421E18>,169.89566159999958,None,4.0,6.714860100000806,7.0,5.081133700001374,4.0,3.8482039000009536,<function functiondiffAt at 0x0000020785141BF8>,<function functiondiffBt at 0x0000020785141158>,<function functiondiffCt at 0x0000020785141950>,,,,,,,,,,,,21,001,2022_Jul_19_1601,2leo,2021.2.3,59.46448661903856,
3,3,Plan one week of vacation,Stimuli/3A1t.jpg,Stimuli/3A2t.jpg,Stimuli/3A3t.jpg,Stimuli/3B1t.jpg,Stimuli/3B2t.jpg,Stimuli/3B3t.jpg,Stimuli/3C1t.jpg,Stimuli/3C2t.jpg,Stimuli/3C3t.jpg,0,1,1,1,,,,,,,,,,,,173.2622334000007,None,174.26231280000138,None,180.26217919999908,None,"[0.304, -0.26]","[0.07, 0.393]","[-0.378, -0.136]","[-0.203, -0.347]","[0.399, -0.003]","[-0.2, 0.346]","[0.066, -0.395]","[0.306, 0.255]","[-0.377, 0.138]",186.38794210000196,11.731738819969905,4.515811919969565,24.78224311996746,"[-0.1638888888888889, 0.30648148148148147, -0.3490740740740741]","[-0.3574074074074074, -0.21574074074074073, 0.15092592592592594]","[1, 1, 1]","[0, 0, 0]","[0, 0, 0]","[4.506730900000548, 11.722930100000667, 24.772730000000593]",0.008403719970374368,24.780874419968313,['A1'],['B1'],['C3'],['salmon'],['blue'],['yellow'],211.62783800000034,None,7.0,5.330584999999701,211.62783800000034,None,236.99358399999983,None,10.0,7.781962499997462,228.97753860000012,None,9.0,7.698585300000559,218.91102890000184,None,7.0,10.480630899997777,<function functionImportanceAt at 0x00000207F1FD51E0>,<function functionImportanceCt at 0x00000207F7DF5268>,<function functionImportanceBt at 0x0000020784421BF8>,255.92674389999956,None,3.0,10.480630899997777,1.0,5.747984300000098,7.0,6.446934600000532,<function functiondiffCt at 0x00000207842E0EA0>,<function functiondiffBt at 0x00000207817769D8>,<function functiondiffAt at 0x0000020781405E18>,,,,,,,,,,,,21,001,2022_Jul_19_1601,2leo,2021.2.3,59.46448661903856,
3,38,Plan how you want to go for a run,Stimuli/38A1.jpg,Stimuli/38A2.jpg,Stimuli/38A3.jpg,Stimuli/38B1.jpg,Stimuli/38B2.jpg,Stimuli/38B3.jpg,Stimuli/38C1.jpg,Stimuli/38C2.jpg,Stimuli/38C3.jpg,,,,,0,0,0,38,,,,,,,,324.0856528000004,None,325.0747959,None,331.0745549000021,None,"[0.399, -0.003]","[-0.203, -0.347]","[-0.2, 0.346]","[0.306, 0.255]","[0.066, -0.395]","[-0.377, 0.138]","[0.07, 0.393]","[0.304, -0.26]","[-0.378, -0.136]",,12.364186149996385,16.331291749997035,5.281799849995878,"[0.34814814814814815, -0.13055555555555556, 0.34444444444444444]","[-0.2490740740740741, -0.2935185185185185, 0.27037037037037037]","[1, 1, 1]","[0, 0, 0]","[0, 0, 0]","[5.2723471999997855, 12.355268199997226, 16.322163199998613]",0.008430249996308703,16.330238449998433,['A2'],['B1'],['C2'],['salmon'],['yellow'],['blue'],349.1238348000006,None,9.0,5.862378300000273,349.1238348000006,None,355.0904761999991,None,10.0,6.3809403000013845,361.5737291000005,None,9.0,4.948472600000969,366.491931200002,None,9.0,8.448045000001002,<function functionImportanceB at 0x00000207844219D8>,<function functionImportanceC at 0x0000020785221B70>,<function functionImportanceA at 0x0000020785141F28>,,,2.0,6.064164499999606,0.0,4.430851699999039,2.0,8.448045000001002,<function functiondiffA at 0x00000207851410D0>,<function functiondiffB at 0x0000020785141268>,<function functiondiffC at 0x0000020785221E18>,260.9264676999992,None,260.9264676999992,None,332.3189093000001,374.8567222999991,None,380.939970899999,None,385.40645740000036,None,21,001,2022_Jul_19_1601,2leo,2021.2.3,59.46448661903856,
3,18,Plan your Saturday night ,Stimuli/18A1.jpg,Stimuli/18A2.jpg,Stimuli/18A3.jpg,Stimuli/18B1.jpg,Stimuli/18B2.jpg,Stimuli/18B3.jpg,Stimuli/18C1.jpg,Stimuli/18C2.jpg,Stimuli/18C3.jpg,,,,,0,1,1,18,,,,,,,,388.0063220000011,None,389.00614810000116,None,395.00621650000176,None,"[-0.203, -0.347]","[0.399, -0.003]","[-0.2, 0.346]","[0.304, -0.26]","[0.07, 0.393]","[-0.378, -0.136]","[0.066, -0.395]","[0.306, 0.255]","[-0.377, 0.138]",,6.761150980000821,17.894439680003416,27.87771478000286,"[-0.16296296296296298, -0.37407407407407406, 0.24351851851851852]","[-0.35833333333333334, -0.12962962962962962, 0.1925925925925926]","[1, 1, 1]","[0, 0, 0]","[0, 0, 0]","[6.7547419000002265, 17.887568900001497, 27.870697700000164]",0.005986280000797706,27.876384880000842,['A1'],['B3'],['C2'],['yellow'],['blue'],['salmon'],424.4551945000021,None,9.0,5.930624600001465,424.4551945000021,None,430.4216567000003,None,9.0,9.64743979999912,440.13821400000234,None,1.0,6.014838999999483,446.1545565000015,None,10.0,4.1980868999999075,<function functionImportanceB at 0x0000020785141620>,<function functionImportanceC at 0x0000020785221158>,<function functionImportanceA at 0x0000020785141EA0>,,,0.0,4.781055000003107,8.0,5.897795500000939,5.0,4.1980868999999075,<function functiondiffA at 0x0000020785221048>,<function functiondiffB at 0x0000020785221730>,<function functiondiffC at 0x0000020785221488>,,,,,396.10016069999983,450.33765760000097,None,455.1211112000019,None,461.0542501000018,None,21,001,2022_Jul_19_1601,2leo,2021.2.3,59.46448661903856,
3,41,Plan how you want to have dinner tonight ,Stimuli/41A1.jpg,Stimuli/41A2.jpg,Stimuli/41A3.jpg,Stimuli/41B1.jpg,Stimuli/41B2.jpg,Stimuli/41B3.jpg,Stimuli/41C1.jpg,Stimuli/41C2.jpg,Stimuli/41C3.jpg,,,,,0,2,2,41,,,,,,,,467.12061050000193,None,468.12220420000085,None,474.13741260000097,None,"[0.399, -0.003]","[-0.2, 0.346]","[-0.203, -0.347]","[0.07, 0.393]","[-0.378, -0.136]","[0.304, -0.26]","[0.306, 0.255]","[-0.377, 0.138]","[0.066, -0.395]",,25.628365900000063,11.212549500000023,20.228673499997967,"[0.30185185185185187, 0.2796296296296296, -0.15]","[-0.2675925925925926, 0.21296296296296297, -0.30277777777777776]","[1, 1, 1]","[0, 0, 0]","[0, 0, 0]","[11.204000699999597, 20.21996239999862, 25.620030999998562]",0.007709099998464808,25.627452499997162,['A3'],['B3'],['C1'],['blue'],['salmon'],['yellow'],501.56969749999917,None,10.0,4.363508100002946,501.56969749999917,None,525.4023183999998,None,6.0,7.78146420000121,506.1695265999988,None,6.0,9.230880899998738,515.2695797000015,None,8.0,10.13172940000004,<function functionImportanceC at 0x0000020785141510>,<function functionImportanceA at 0x0000020785221950>,<function functionImportanceB at 0x0000020785221840>,,,2.0,5.497761900001933,5.0,4.298070299999381,1.0,10.13172940000004,<function functiondiffA at 0x0000020785221598>,<function functiondiffC at 0x0000020785221F28>,<function functiondiffB at 0x0000020785221400>,,,,,475.4654608000019,533.1690861999996,None,542.9019466999998,None,538.7187993000007,None,21,001,2022_Jul_19_1601,2leo,2021.2.3,59.46448661903856,
3,37,Plan your cleaning routine ,Stimuli/37A1.jpg,Stimuli/37A2.jpg,Stimuli/37A3.jpg,Stimuli/37B1.jpg,Stimuli/37B2.jpg,Stimuli/37B3.jpg,Stimuli/37C1.jpg,Stimuli/37C2.jpg,Stimuli/37C3.jpg,,,,,0,3,3,37,,,,,,,,546.7183826,None,547.7201652000003,None,553.7351156000004,None,"[-0.378, -0.136]","[0.07, 0.393]","[0.304, -0.26]","[-0.2, 0.346]","[0.399, -0.003]","[-0.203, -0.347]","[-0.377, 0.138]","[0.306, 0.255]","[0.066, -0.395]",,7.258908309999242,14.127428509997117,19.44249390999903,"[0.05740740740740741, -0.14166666666666666, 0.3148148148148148]","[0.3638888888888889, -0.4009259259259259, 0.24166666666666667]","[1, 1, 1]","[0, 0, 0]","[0, 0, 0]","[7.245010799997544, 14.11314610000045, 19.428130199998122]",0.013355209997826023,19.44132110999999,['A2'],['B3'],['C2'],['yellow'],['salmon'],['blue'],574.7508276000008,None,10.0,5.796822299998894,574.7508276000008,None,585.9339170000021,None,8.0,5.482050899998285,580.6175824999991,None,1.0,5.31456000000253,591.4507391000006,None,8.0,10.064822399999684,<function functionImportanceC at 0x0000020785221D90>,<function functionImportanceB at 0x0000020785221AE8>,<function functionImportanceA at 0x00000207851419D8>,,,2.0,3.864122699997097,1.0,3.5978456000011647,-0.0,10.064822399999684,<function functiondiffA at 0x0000020785141AE8>,<function functiondiffC at 0x00000207852219D8>,<function functiondiffB at 0x0000020785141598>,,,,,554.8386869999995,601.5003648999991,None,608.2168869000016,None,605.3836066000003,None,21,001,2022_Jul_19_1601,2leo,2021.2.3,59.46448661903856,
3,39,Plan what kind of watch you want to buy,Stimuli/39A1.jpg,Stimuli/39A2.jpg,Stimuli/39A3.jpg,Stimuli/39B1.jpg,Stimuli/39B2.jpg,Stimuli/39B3.jpg,Stimuli/39C1.jpg,Stimuli/39C2.jpg,Stimuli/39C3.jpg,,,,,0,4,4,39,,,,,,,,611.3332800999997,None,612.3332483000013,None,618.3333018000012,None,"[-0.2, 0.346]","[0.399, -0.003]","[-0.203, -0.347]","[-0.378, -0.136]","[0.07, 0.393]","[0.304, -0.26]","[-0.377, 0.138]","[0.306, 0.255]","[0.066, -0.395]",,16.832872069997393,3.4833210699980555,28.099874769999587,"[-0.3111111111111111, -0.14166666666666666, 0.37777777777777777]","[-0.10648148148148148, 0.2935185185185185, 0.25925925925925924]","[1, 1, 1]","[0, 0, 0]","[0, 0, 0]","[3.4737779000024602, 16.823591600001237, 28.08993090000149]",0.00883756999974139,28.098497869999846,['A1'],['B1'],['C2'],['salmon'],['blue'],['yellow'],648.0489443000006,None,7.0,5.330000900001323,648.0489443000006,None,657.0654256000016,None,10.0,4.28152609999961,653.4989607999996,None,-0.0,3.6146307999988494,661.382099800001,None,10.0,5.765453500000149,<function functionImportanceC at 0x00000207829FF6A8>,<function functionImportanceB at 0x00000207829FF510>,<function functionImportanceA at 0x0000020785141C80>,,,8.0,6.364452599998913,0.0,3.7309965000022203,2.0,5.765453500000149,<function functiondiffB at 0x0000020785221D08>,<function functiondiffA at 0x0000020785221378>,<function functiondiffC at 0x00000207851411E0>,,,,,619.4737408000001,670.8819084999996,None,667.1319131000018,None,677.264983699999,None,21,001,2022_Jul_19_1601,2leo,2021.2.3,59.46448661903856,
3,42,Plan how to draw a painting ,Stimuli/42A1.jpg,Stimuli/42A2.jpg,Stimuli/42A3.jpg,Stimuli/42B1.jpg,Stimuli/42B2.jpg,Stimuli/42B3.jpg,Stimuli/42C1.jpg,Stimuli/42C2.jpg,Stimuli/42C3.jpg,,,,,0,5,5,42,,,,,,,,682.197905699999,None,683.1979683999998,None,689.1981139000018,None,"[0.07, 0.393]","[-0.378, -0.136]","[0.304, -0.26]","[0.399, -0.003]","[-0.2, 0.346]","[-0.203, -0.347]","[0.306, 0.255]","[-0.377, 0.138]","[0.066, -0.395]",,16.85541450999517,23.1051329099937,26.7386035099953,"[-0.30833333333333335, 0.42685185185185187, 0.3388888888888889]","[-0.0962962962962963, -0.03148148148148148, 0.24814814814814815]","[1, 1, 1]","[0, 0, 0]","[0, 0, 0]","[16.842400800000178, 23.091988899999706, 26.725176800002373]",0.012456909993488807,26.737489309995,['A2'],['B1'],['C1'],['blue'],['yellow'],['salmon'],717.6801989000014,None,8.0,3.8466956000011123,717.6801989000014,None,731.3301075999989,None,8.0,11.065339799999492,727.9967333999994,None,9.0,3.3152493000015966,721.747114400001,None,8.0,6.3812245999979496,<function functionImportanceA at 0x00000207829FFE18>,<function functionImportanceC at 0x00000207829FFD08>,<function functionImportanceB at 0x00000207829FFB70>,,,7.0,5.797464199997194,3.0,7.0976427999994485,0.0,6.3812245999979496,<function functiondiffB at 0x00000207829FF268>,<function functiondiffA at 0x00000207829FF620>,<function functiondiffC at 0x00000207829FF840>,,,,,690.4703947999988,749.5296550000021,None,742.3797550999989,None,755.312870400001,None,21,001,2022_Jul_19_1601,2leo,2021.2.3,59.46448661903856,
3,24,Plan your Monday morning on a workday ,Stimuli/24A1.jpg,Stimuli/24A2.jpg,Stimuli/24A3.jpg,Stimuli/24B1.jpg,Stimuli/24B2.jpg,Stimuli/24B3.jpg,Stimuli/24C1.jpg,Stimuli/24C2.jpg,Stimuli/24C3.jpg,,,,,0,6,6,24,,,,,,,,758.2125464000019,None,759.2123376999989,None,765.212770099999,None,"[0.066, -0.395]","[0.306, 0.255]","[-0.377, 0.138]","[-0.203, -0.347]","[0.399, -0.003]","[-0.2, 0.346]","[0.304, -0.26]","[0.07, 0.393]","[-0.378, -0.136]",,15.4282378099997,9.695177709996642,3.4122014099993976,"[-0.3787037037037037, 0.43703703703703706, -0.3277777777777778]","[-0.11203703703703703, -0.009259259259259259, 0.09351851851851851]","[1, 1, 1]","[0, 0, 0]","[0, 0, 0]","[3.4047872999981337, 9.688042799996765, 15.421081999997114]",0.006331309999950463,15.427346209999087,['A3'],['B2'],['C3'],['salmon'],['yellow'],['blue'],782.2285435000013,None,10.0,1.8636098999995738,782.2285435000013,None,784.1619795000006,None,10.0,4.047852400002739,793.2449481000003,None,10.0,2.631704499999614,788.2283814000002,None,9.0,4.998347500000818,<function functionImportanceB at 0x0000020785221510>,<function functionImportanceA at 0x000002078190EF28>,<function functionImportanceC at 0x00000207852218C8>,,,1.0,5.530737699999008,0.0,2.8811907000017527,-0.0,4.998347500000818,<function functiondiffA at 0x00000207829FFEA0>,<function functiondiffC at 0x00000207829FF8C8>,<function functiondiffB at 0x00000207829FFD90>,,,,,766.3214516000007,795.8614688000016,None,804.9614996000018,None,801.4114387000009,None,21,001,2022_Jul_19_1601,2leo,2021.2.3,59.46448661903856,
3,19,Plan how you want your garden to look like,Stimuli/19A1.jpg,Stimuli/19A2.jpg,Stimuli/19A3.jpg,Stimuli/19B1.jpg,Stimuli/19B2.jpg,Stimuli/19B3.jpg,Stimuli/19C1.jpg,Stimuli/19C2.jpg,Stimuli/19C3.jpg,,,,,0,7,7,19,,,,,,,,807.361149700002,None,808.3612796000016,None,814.361103700001,None,"[-0.378, -0.136]","[0.07, 0.393]","[0.304, -0.26]","[-0.2, 0.346]","[0.399, -0.003]","[-0.203, -0.347]","[-0.377, 0.138]","[0.306, 0.255]","[0.066, -0.395]",,26.165757109982223,18.40173740998216,13.633236809982918,"[-0.387037037037037, -0.23981481481481481, 0.12407407407407407]","[0.10555555555555556, 0.31574074074074077, 0.39166666666666666]","[1, 1, 1]","[0, 0, 0]","[0, 0, 0]","[13.619130099999893, 18.386534599998413, 26.152077599999757]",0.013137709982402157,26.16520520998165,['A2'],['B1'],['C1'],['salmon'],['blue'],['yellow'],844.6267665000014,None,8.0,2.9640854999997828,844.6267665000014,None,858.9265732000022,None,8.0,4.348795300000347,849.0434724000006,None,9.0,10.147631300002104,862.209562,None,9.0,5.9318777000007685,<function functionImportanceC at 0x00000207851418C8>,<function functionImportanceB at 0x0000020785221268>,<function functionImportanceA at 0x00000207852216A8>,,,3.0,3.547411600000487,1.0,5.497837399998389,4.0,5.9318777000007685,<function functiondiffB at 0x00000207829FF7B8>,<function functiondiffC at 0x00000207829FF9D8>,<function functiondiffA at 0x00000207829FFC80>,,,,,818.0085369000008,878.8760307000011,None,868.376252500002,None,874.0261290999988,None,21,001,2022_Jul_19_1601,2leo,2021.2.3,59.46448661903856,
3,10,Plan a restaurant visit with your family on the weekend ,Stimuli/10A1.jpg,Stimuli/10A2.jpg,Stimuli/10A3.jpg,Stimuli/10B1.jpg,Stimuli/10B2.jpg,Stimuli/10B3.jpg,Stimuli/10C1.jpg,Stimuli/10C2.jpg,Stimuli/10C3.jpg,,,,,0,8,8,10,,,,,,,,881.9256822999996,None,882.9256190000015,None,888.9258068000017,None,"[-0.2, 0.346]","[-0.203, -0.347]","[0.399, -0.003]","[-0.378, -0.136]","[0.304, -0.26]","[0.07, 0.393]","[-0.377, 0.138]","[0.066, -0.395]","[0.306, 0.255]",,21.248108959982346,11.6820623599815,7.9824381599792105,"[0.2518518518518518, 0.1259259259259259, 0.43148148148148147]","[0.20925925925925926, 0.3425925925925926, -0.03518518518518519]","[1, 1, 1]","[0, 0, 0]","[0, 0, 0]","[7.975076099999569, 11.674931599998672, 21.241266600001836]",0.006249259979085764,21.247340859979886,['A3'],['B3'],['C3'],['salmon'],['yellow'],['blue'],914.7080921000015,None,10.0,3.6971118000001297,914.7080921000015,None,921.2581611999994,None,9.0,6.514530699998431,931.5575959999987,None,0.0,7.6649590999986685,925.1245216999996,None,10.0,6.498478799996519,<function functionImportanceB at 0x0000020785221A60>,<function functionImportanceA at 0x00000207829FF1E0>,<function functionImportanceC at 0x0000020785221620>,,,-0.0,5.681022600001597,1.0,4.6814376000002085,1.0,6.498478799996519,<function functiondiffC at 0x00000207829FF378>,<function functiondiffB at 0x00000207829FF048>,<function functiondiffA at 0x00000207829FF950>,,,,,892.9993746,950.3738856999989,None,946.4741345000002,None,939.1741986000015,None,21,001,2022_Jul_19_1601,2leo,2021.2.3,59.46448661903856,
3,35,Plan how you want to do your grocery shopping ,Stimuli/35A1.jpg,Stimuli/35A2.jpg,Stimuli/35A3.jpg,Stimuli/35B1.jpg,Stimuli/35B2.jpg,Stimuli/35B3.jpg,Stimuli/35C1.jpg,Stimuli/35C2.jpg,Stimuli/35C3.jpg,,,,,0,9,9,35,,,,,,,,955.5567588000013,None,956.5570189999999,None,962.5569600999988,None,"[0.07, 0.393]","[0.304, -0.26]","[-0.378, -0.136]","[0.306, 0.255]","[0.066, -0.395]","[-0.377, 0.138]","[0.399, -0.003]","[-0.203, -0.347]","[-0.2, 0.346]",,13.49085391999688,4.7579736199986655,20.47431081999821,"[0.29814814814814816, -0.38425925925925924, 0.39166666666666666]","[0.20833333333333334, -0.08518518518518518, 0.06481481481481481]","[1, 1, 1]","[0, 0, 0]","[0, 0, 0]","[4.752228900000773, 13.485283900001377, 20.468347599999106]",0.004987419997632969,20.473206719998416,['A3'],['B1'],['C1'],['blue'],['salmon'],['yellow'],984.7394119000019,None,7.0,4.080414000000019,984.7394119000019,None,1002.3555994999988,None,10.0,4.281759900000907,988.8894829000019,None,2.0,8.114589799999521,997.0392931999995,None,3.0,5.181906500001787,<function functionImportanceC at 0x00000207857818C8>,<function functionImportanceA at 0x00000207829FF0D0>,<function functionImportanceB at 0x0000020785221BF8>,,,5.0,4.030886299999111,0.0,2.881200899999385,4.0,5.181906500001787,<function functiondiffC at 0x0000020785781730>,<function functiondiffB at 0x00000207829FF488>,<function functiondiffA at 0x0000020785221EA0>,,,,,963.7867592000002,1014.5055008999989,None,1011.6223769999997,None,1006.4888944000013,None,21,001,2022_Jul_19_1601,2leo,2021.2.3,59.46448661903856,
3,7,Plan your Sunday breakfast ,Stimuli/7A1.jpg,Stimuli/7A2.jpg,Stimuli/7A3.jpg,Stimuli/7B1.jpg,Stimuli/7B2.jpg,Stimuli/7B3.jpg,Stimuli/7C1.jpg,Stimuli/7C2.jpg,Stimuli/7C3.jpg,,,,,0,10,10,7,,,,,,,,1018.055148899999,None,1019.0552849000014,None,1025.0552558000018,None,"[-0.378, -0.136]","[0.304, -0.26]","[0.07, 0.393]","[-0.2, 0.346]","[-0.203, -0.347]","[0.399, -0.003]","[-0.377, 0.138]","[0.066, -0.395]","[0.306, 0.255]",,6.431841209967388,14.431792909967044,10.898683709969191,"[0.36018518518518516, 0.05, 0.3611111111111111]","[-0.23981481481481481, -0.4046296296296296, -0.028703703703703703]","[1, 1, 1]","[0, 0, 0]","[0, 0, 0]","[6.415414299997792, 10.881683299998258, 14.415085900000122]",0.01587250996817602,14.430706109968014,['A2'],['B3'],['C2'],['yellow'],['salmon'],['blue'],1045.9376913000015,None,10.0,2.3304462999985844,1045.9376913000015,None,1065.9204719000008,None,10.0,5.298737600001914,1049.5376676000014,None,9.0,8.680807199998526,1058.8208928000022,None,7.0,6.998400799999217,<function functionImportanceC at 0x0000020785781488>,<function functionImportanceA at 0x00000207829FF2F0>,<function functionImportanceB at 0x00000207857810D0>,,,2.0,5.581245499997749,-0.0,4.647679400000925,1.0,6.998400799999217,<function functiondiffB at 0x00000207829FFAE8>,<function functiondiffC at 0x0000020785781268>,<function functiondiffA at 0x00000207829FFBF8>,,,,,1031.0586304999997,1077.820512000002,None,1070.0040479999989,None,1074.3706227000002,None,21,001,2022_Jul_19_1601,2leo,2021.2.3,59.46448661903856,
3,25,Plan how you want to read a book in your free time ,Stimuli/25A1.jpg,Stimuli/25A2.jpg,Stimuli/25A3.jpg,Stimuli/25B1.jpg,Stimuli/25B2.jpg,Stimuli/25B3.jpg,Stimuli/25C1.jpg,Stimuli/25C2.jpg,Stimuli/25C3.jpg,,,,,0,11,11,25,,,,,,,,1082.386790200002,None,1083.3868546000012,None,1089.3870210000023,None,"[0.399, -0.003]","[-0.203, -0.347]","[-0.2, 0.346]","[0.306, 0.255]","[0.066, -0.395]","[-0.377, 0.138]","[0.07, 0.393]","[0.304, -0.26]","[-0.378, -0.136]",,13.296038630000112,17.296095429999696,7.796887329997844,"[-0.3416666666666667, 0.37037037037037035, 0.27037037037037037]","[-0.13240740740740742, -0.01574074074074074, 0.18333333333333332]","[1, 1, 1]","[0, 0, 0]","[0, 0, 0]","[7.786696299997857, 13.28660630000013, 17.28637019999951]",0.009017129999847384,17.295235929999762,['A1'],['B1'],['C3'],['salmon'],['yellow'],['blue'],1108.669402399999,None,9.0,6.913879399999132,1108.669402399999,None,1131.518963800001,None,5.0,5.1149884999977075,1115.9861225999994,None,8.0,12.113658399997803,1127.8371899000012,None,7.0,3.631852299997263,<function functionImportanceC at 0x00000207857819D8>,<function functionImportanceA at 0x00000207857817B8>,<function functionImportanceB at 0x0000020785781400>,,,2.0,6.914520300000731,3.0,7.464657799999259,1.0,3.631852299997263,<function functiondiffA at 0x0000020785141A60>,<function functiondiffC at 0x0000020785781378>,<function functiondiffB at 0x0000020785221C80>,,,,,1090.9106801999988,1136.5355430000018,None,1146.3683103000003,None,1143.5518954,None,21,001,2022_Jul_19_1601,2leo,2021.2.3,59.46448661903856,
3,13,Plan a romantic date this weekend,Stimuli/13A1.jpg,Stimuli/13A2.jpg,Stimuli/13A3.jpg,Stimuli/13B1.jpg,Stimuli/13B2.jpg,Stimuli/13B3.jpg,Stimuli/13C1.jpg,Stimuli/13C2.jpg,Stimuli/13C3.jpg,,,,,0,12,12,13,,,,,,,,1153.3347469,None,1154.334833500001,None,1160.334937300002,None,"[-0.2, 0.346]","[0.399, -0.003]","[-0.203, -0.347]","[-0.378, -0.136]","[0.07, 0.393]","[0.304, -0.26]","[-0.377, 0.138]","[0.306, 0.255]","[0.066, -0.395]",,20.662489660000574,13.014765959997021,24.37984395999956,"[-0.3425925925925926, -0.15185185185185185, -0.3277777777777778]","[-0.0962962962962963, -0.28703703703703703, 0.09074074074074075]","[1, 1, 1]","[0, 0, 0]","[0, 0, 0]","[13.005689800000255, 20.654376300000877, 24.37143179999839]",0.00748015999852214,24.37860806000026,['A3'],['B1'],['C1'],['yellow'],['blue'],['salmon'],1186.3838278000003,None,9.0,2.913425599999755,1186.3838278000003,None,1189.4172199999994,None,10.0,5.26427909999984,1194.6671051000012,None,9.0,5.248414599998796,1199.9167959000006,None,3.0,5.164883699999336,<function functionImportanceB at 0x0000020785781F28>,<function functionImportanceC at 0x00000207857816A8>,<function functionImportanceA at 0x00000207829FFA60>,,,2.0,4.3310939999973925,2.0,4.6314443000010215,-0.0,5.164883699999336,<function functiondiffC at 0x0000020785781158>,<function functiondiffB at 0x0000020785781AE8>,<function functiondiffA at 0x0000020785781D08>,,,,,1161.528306100001,1213.8667320000022,None,1209.233355100001,None,1205.050062800001,None,21,001,2022_Jul_19_1601,2leo,2021.2.3,59.46448661903856,
3,17,Plan a day in Barcelona with a friend who is new to the city,Stimuli/17A1.jpg,Stimuli/17A2.jpg,Stimuli/17A3.jpg,Stimuli/17B1.jpg,Stimuli/17B2.jpg,Stimuli/17B3.jpg,Stimuli/17C1.jpg,Stimuli/17C2.jpg,Stimuli/17C3.jpg,,,,,0,13,13,17,,,,,,,,1217.716085,None,1218.716386600001,None,1224.7162936000022,None,"[-0.2, 0.346]","[-0.203, -0.347]","[0.399, -0.003]","[-0.377, 0.138]","[0.066, -0.395]","[0.306, 0.255]","[-0.378, -0.136]","[0.304, -0.26]","[0.07, 0.393]",,11.80502997000076,4.806087569999363,19.872326770000655,"[0.037037037037037035, -0.15648148148148147, 0.3287037037037037]","[-0.33240740740740743, 0.3333333333333333, -0.2518518518518518]","[1, 1, 1]","[0, 0, 0]","[0, 0, 0]","[4.801852300002793, 11.801154800003133, 19.86785200000304]",0.003471370000625029,19.87109817000237,['A1'],['B2'],['C2'],['salmon'],['blue'],['yellow'],1246.215525300002,None,8.0,5.247306600002048,1246.215525300002,None,1256.7988102999989,None,10.0,3.031603700001142,1251.5322946000015,None,9.0,5.248409899999388,1259.8821306999998,None,9.0,6.614557799999602,<function functionImportanceC at 0x00000207829FF598>,<function functionImportanceB at 0x00000207829FF730>,<function functionImportanceA at 0x0000020785781E18>,,,7.0,3.6816354999973555,1.0,4.313997000001109,7.0,6.614557799999602,<function functiondiffC at 0x0000020785781840>,<function functiondiffA at 0x0000020785781BF8>,<function functiondiffB at 0x0000020785781620>,,,,,1225.8618290000013,1274.3649265999993,None,1278.0647747000003,None,1266.4483366000022,None,21,001,2022_Jul_19_1601,2leo,2021.2.3,59.46448661903856,
3,30,Plan your sport work out for tomorrow,Stimuli/30A1.jpg,Stimuli/30A2.jpg,Stimuli/30A3.jpg,Stimuli/30B1.jpg,Stimuli/30B2.jpg,Stimuli/30B3.jpg,Stimuli/30C1.jpg,Stimuli/30C2.jpg,Stimuli/30C3.jpg,,,,,0,14,14,30,,,,,,,,1281.8979190999999,None,1282.8977235999992,None,1288.8981306000023,None,"[0.07, 0.393]","[-0.378, -0.136]","[0.304, -0.26]","[0.399, -0.003]","[-0.2, 0.346]","[-0.203, -0.347]","[0.306, 0.255]","[-0.377, 0.138]","[0.066, -0.395]",,16.993368600000395,26.61037960000249,11.361053900000115,"[-0.3398148148148148, 0.11018518518518519, -0.14444444444444443]","[0.10092592592592593, 0.33796296296296297, 0.33055555555555555]","[1, 1, 1]","[0, 0, 0]","[0, 0, 0]","[11.354038800000126, 16.986962999999378, 26.603523999998288]",0.005998200002068188,26.609143500001665,['A1'],['B2'],['C2'],['yellow'],['salmon'],['blue'],1317.1468544999989,None,7.0,8.712950200002524,1317.1468544999989,None,1325.9802206999993,None,7.0,4.130619400002615,1330.0799081000005,None,1.0,3.998591399998986,1334.0964816000014,None,9.0,3.531813300000067,<function functionImportanceB at 0x0000020785CAA268>,<function functionImportanceC at 0x0000020785CAA158>,<function functionImportanceA at 0x0000020785781048>,,,-0.0,5.564535199999227,5.0,4.597515400000702,5.0,3.531813300000067,<function functiondiffC at 0x0000020785CAA620>,<function functiondiffA at 0x0000020785781598>,<function functiondiffB at 0x0000020785781B70>,,,,,1290.0589953999988,1342.4131581000001,None,1348.0129347000002,None,1337.6130608000021,None,21,001,2022_Jul_19_1601,2leo,2021.2.3,59.46448661903856,
3,11,Plan a hike in nature on a free day,Stimuli/11A1.jpg,Stimuli/11A2.jpg,Stimuli/11A3.jpg,Stimuli/11B1.jpg,Stimuli/11B2.jpg,Stimuli/11B3.jpg,Stimuli/11C1.jpg,Stimuli/11C2.jpg,Stimuli/11C3.jpg,,,,,0,15,15,11,,,,,,,,1369.1788770999992,None,1370.1790705000021,None,1376.1789239999998,None,"[-0.203, -0.347]","[-0.2, 0.346]","[0.399, -0.003]","[0.066, -0.395]","[-0.377, 0.138]","[0.306, 0.255]","[0.304, -0.26]","[-0.378, -0.136]","[0.07, 0.393]",,18.045677339996473,5.78055203999611,9.94678183999713,"[-0.3472222222222222, -0.35, -0.225]","[0.07962962962962963, -0.1527777777777778, 0.3425925925925926]","[1, 1, 1]","[0, 0, 0]","[0, 0, 0]","[5.772821900001873, 9.938675100002001, 18.03818020000108]",0.006965039996430278,18.04501603999961,['A2'],['B2'],['C2'],['yellow'],['salmon'],['blue'],1395.8279704000015,None,9.0,1.8629898999970465,1395.8279704000015,None,1397.7615265999993,None,7.0,3.464457300000504,1401.2448762000022,None,10.0,2.5151203999994323,1403.7780182999995,None,6.0,4.414844100003393,<function functionImportanceB at 0x0000020785CAA488>,<function functionImportanceC at 0x0000020785CAA950>,<function functionImportanceA at 0x0000020785781510>,,,6.0,5.264631999998528,2.0,3.2974471999987145,-0.0,4.414844100003393,<function functiondiffB at 0x00000207857811E0>,<function functiondiffC at 0x0000020785781950>,<function functiondiffA at 0x00000207829FF400>,,,,,1377.3068295000012,1415.4942253000008,None,1408.1778556999998,None,1411.494544000001,None,21,001,2022_Jul_19_1601,2leo,2021.2.3,59.46448661903856,
3,1,Plan how to study for an exam,Stimuli/1A1.jpg,Stimuli/1A2.jpg,Stimuli/1A3.jpg,Stimuli/1B1.jpg,Stimuli/1B2.jpg,Stimuli/1B3.jpg,Stimuli/1C1.jpg,Stimuli/1C2.jpg,Stimuli/1C3.jpg,,,,,0,16,16,1,,,,,,,,1420.2771057999998,None,1421.277371600001,None,1427.2773734000002,None,"[-0.203, -0.347]","[0.399, -0.003]","[-0.2, 0.346]","[0.066, -0.395]","[0.306, 0.255]","[-0.377, 0.138]","[0.304, -0.26]","[0.07, 0.393]","[-0.378, -0.136]",,24.71239064999827,15.995840849998785,19.096007049996842,"[0.07592592592592592, 0.08333333333333333, -0.13240740740740742]","[-0.3435185185185185, 0.35185185185185186, 0.31574074074074077]","[1, 1, 1]","[0, 0, 0]","[0, 0, 0]","[15.988453400001163, 19.088304799999605, 24.705075900001248]",0.006687549997877795,24.71157194999614,['A3'],['B1'],['C2'],['blue'],['salmon'],['yellow'],1453.5431854000017,None,8.0,2.2636413000000175,1453.5431854000017,None,1466.3596441000009,None,7.0,6.615125599997555,1459.9598221000015,None,10.0,6.348386100002244,1455.8766518000011,None,9.0,4.097903500001848,<function functionImportanceA at 0x0000020785CAA048>,<function functionImportanceC at 0x0000020785CAA2F0>,<function functionImportanceB at 0x0000020785CAAAE8>,,,4.0,4.580509499999607,5.0,4.031119700001,3.0,4.097903500001848,<function functiondiffB at 0x0000020785CAA8C8>,<function functiondiffC at 0x0000020785CAA510>,<function functiondiffA at 0x0000020785CAAF28>,,,,,1428.3540797000023,1480.625837399999,None,1472.942767200002,None,1476.9926094000002,None,21,001,2022_Jul_19_1601,2leo,2021.2.3,59.46448661903856,
3,4,Plan a game night at your place,Stimuli/4A1.jpg,Stimuli/4A2.jpg,Stimuli/4A3.jpg,Stimuli/4B1.jpg,Stimuli/4B2.jpg,Stimuli/4B3.jpg,Stimuli/4C1.jpg,Stimuli/4C2.jpg,Stimuli/4C3.jpg,,,,,0,17,17,4,,,,,,,,1484.7253038999988,None,1485.7255083000018,None,1491.7255564000006,None,"[0.07, 0.393]","[0.304, -0.26]","[-0.378, -0.136]","[0.306, 0.255]","[0.066, -0.395]","[-0.377, 0.138]","[0.399, -0.003]","[-0.203, -0.347]","[-0.2, 0.346]",,10.748918959983712,4.549091959983343,15.916293459984445,"[0.2851851851851852, -0.34074074074074073, -0.13518518518518519]","[0.22685185185185186, -0.09907407407407408, 0.28703703703703703]","[1, 1, 1]","[0, 0, 0]","[0, 0, 0]","[4.536924200001522, 10.736884000001737, 15.903760900000634]",0.01144705998376594,15.914811659986299,['A3'],['B1'],['C3'],['salmon'],['blue'],['yellow'],1511.4915194000023,None,10.0,2.0464572999990196,1511.4915194000023,None,1520.4919418999998,None,8.0,5.731724199999007,1527.5745898000023,None,7.0,10.66481560000102,1514.591528500001,None,2.0,6.897706899999321,<function functionImportanceA at 0x0000020785781D90>,<function functionImportanceB at 0x0000020785781A60>,<function functionImportanceC at 0x00000207857812F0>,,,1.0,3.4641374000020733,3.0,3.331192000001465,5.0,6.897706899999321,<function functiondiffA at 0x0000020785CAA730>,<function functiondiffB at 0x0000020785CAAC80>,<function functiondiffC at 0x0000020785CAA0D0>,,,,,1495.121047200002,1537.2408648000019,None,1540.4076553000014,None,1544.107207000001,None,21,001,2022_Jul_19_1601,2leo,2021.2.3,59.46448661903856,
3,16,Plan a delicious cake for the birthday of a friend,Stimuli/16A1.jpg,Stimuli/16A2.jpg,Stimuli/16A3.jpg,Stimuli/16B1.jpg,Stimuli/16B2.jpg,Stimuli/16B3.jpg,Stimuli/16C1.jpg,Stimuli/16C2.jpg,Stimuli/16C3.jpg,,,,,0,18,18,16,,,,,,,,1549.1235343000008,None,1550.1254860000008,None,1556.1405386000006,None,"[-0.203, -0.347]","[-0.2, 0.346]","[0.399, -0.003]","[0.066, -0.395]","[-0.377, 0.138]","[0.306, 0.255]","[0.304, -0.26]","[-0.378, -0.136]","[0.07, 0.393]",,12.870685179997963,16.920803279997926,22.971064379999007,"[-0.14722222222222223, 0.2601851851851852, -0.32037037037037036]","[-0.3074074074074074, 0.18796296296296297, -0.10555555555555556]","[1, 1, 1]","[0, 0, 0]","[0, 0, 0]","[12.866009500001383, 16.91569890000028, 22.96588200000042]",0.004189679999399232,22.969681979997404,['A1'],['B3'],['C2'],['salmon'],['yellow'],['blue'],1581.0228067999997,None,9.0,2.3968580000000657,1581.0228067999997,None,1583.7070289000003,None,9.0,3.8486355999993975,1587.456191199999,None,7.0,3.598158599997987,1590.989332600002,None,10.0,4.914901200001623,<function functionImportanceB at 0x0000020785CAAE18>,<function functionImportanceC at 0x000002078821D840>,<function functionImportanceA at 0x0000020785781EA0>,,,5.0,5.99774129999787,1.0,3.180795100000978,1.0,4.914901200001623,<function functiondiffB at 0x0000020785781C80>,<function functiondiffA at 0x0000020785CAAA60>,<function functiondiffC at 0x000002078821DBF8>,,,,,1557.5730129000003,1599.072557899999,None,1595.9060405000018,None,1605.1055631999989,None,21,001,2022_Jul_19_1601,2leo,2021.2.3,59.46448661903856,
3,43,Plan your dream house,Stimuli/43A1.jpg,Stimuli/43A2.jpg,Stimuli/43A3.jpg,Stimuli/43B1.jpg,Stimuli/43B2.jpg,Stimuli/43B3.jpg,Stimuli/43C1.jpg,Stimuli/43C2.jpg,Stimuli/43C3.jpg,,,,,0,19,19,43,,,,,,,,1607.1218647999995,None,1608.1222019000015,None,1614.1223061000019,None,"[0.306, 0.255]","[0.066, -0.395]","[-0.377, 0.138]","[0.07, 0.393]","[0.304, -0.26]","[-0.378, -0.136]","[0.399, -0.003]","[-0.203, -0.347]","[-0.2, 0.346]",,8.456909470001847,13.257317770003283,23.007217970003694,"[0.044444444444444446, 0.25555555555555554, -0.15185185185185185]","[-0.32407407407407407, -0.20555555555555555, 0.31851851851851853]","[1, 1, 1]","[0, 0, 0]","[0, 0, 0]","[8.44377489999897, 13.243882300001133, 22.993504099998972]",0.012626770003407728,23.00599307000448,['A2'],['B2'],['C3'],['blue'],['yellow'],['salmon'],1638.738081899999,None,9.0,1.7803874999990512,1638.738081899999,None,1644.488010699999,None,9.0,2.3479889999980514,1640.5714030999989,None,10.0,3.88112270000056,1646.8713171000018,None,9.0,2.814979899998434,<function functionImportanceC at 0x000002078821DE18>,<function functionImportanceB at 0x000002078821D378>,<function functionImportanceA at 0x000002078821D7B8>,,,2.0,4.230934799998067,-0.0,2.748212800001056,7.0,2.814979899998434,<function functiondiffB at 0x0000020785CAABF8>,<function functiondiffA at 0x00000207829FF158>,<function functiondiffC at 0x0000020785CAA1E0>,,,,,1615.2580402000021,1652.4211684000002,None,1649.654535400001,None,1656.6706655000016,None,21,001,2022_Jul_19_1601,2leo,2021.2.3,59.46448661903856,
3,32,Plan how you want to relax after a workday,Stimuli/32A1.jpg,Stimuli/32A2.jpg,Stimuli/32A3.jpg,Stimuli/32B1.jpg,Stimuli/32B2.jpg,Stimuli/32B3.jpg,Stimuli/32C1.jpg,Stimuli/32C2.jpg,Stimuli/32C3.jpg,,,,,0,20,20,32,,,,,,,,1662.070311200001,None,1663.0706097000002,None,1669.0705989000016,None,"[0.304, -0.26]","[-0.378, -0.136]","[0.07, 0.393]","[-0.203, -0.347]","[-0.2, 0.346]","[0.399, -0.003]","[0.066, -0.395]","[-0.377, 0.138]","[0.306, 0.255]",,13.764304969987279,22.43109026998718,5.3485498699883465,"[-0.3490740740740741, -0.3277777777777778, -0.21296296296296297]","[0.08703703703703704, -0.12777777777777777, -0.33240740740740743]","[1, 1, 1]","[0, 0, 0]","[0, 0, 0]","[5.338527600000816, 13.754821500002436, 22.421412700001383]",0.008980269987659995,22.43010166999011,['A2'],['B1'],['C2'],['yellow'],['blue'],['salmon'],1694.9697928000023,None,7.0,4.146620200001053,1694.9697928000023,None,1699.9531153999997,None,6.0,7.56435010000132,1712.7860997999996,None,9.0,3.3483010999989347,1707.8694743000015,None,5.0,5.998646000000008,<function functionImportanceB at 0x000002078821D158>,<function functionImportanceA at 0x000002078821DAE8>,<function functionImportanceC at 0x000002078821DB70>,,,5.0,3.5146512999999686,6.0,5.730886599998485,0.0,5.998646000000008,<function functiondiffB at 0x000002078821DEA0>,<function functiondiffC at 0x000002078821D0D0>,<function functiondiffA at 0x000002078821D9D8>,,,,,1672.0804190999988,1725.069475700002,None,1716.3023558999994,None,1721.852377700001,None,21,001,2022_Jul_19_1601,2leo,2021.2.3,59.46448661903856,
3,28,Plan a one-week camping trip in Spain,Stimuli/28A1.jpg,Stimuli/28A2.jpg,Stimuli/28A3.jpg,Stimuli/28B1.jpg,Stimuli/28B2.jpg,Stimuli/28B3.jpg,Stimuli/28C1.jpg,Stimuli/28C2.jpg,Stimuli/28C3.jpg,,,,,0,21,21,28,,,,,,,,1727.7518520000012,None,1728.752131600002,None,1734.7521832999992,None,"[0.07, 0.393]","[0.304, -0.26]","[-0.378, -0.136]","[0.399, -0.003]","[-0.203, -0.347]","[-0.2, 0.346]","[0.306, 0.255]","[0.066, -0.395]","[-0.377, 0.138]",,6.512302069997531,21.4151824699984,30.112112769995292,"[-0.3675925925925926, -0.15555555555555556, 0.05740740740740741]","[-0.12777777777777777, -0.31851851851851853, -0.33796296296296297]","[1, 1, 1]","[0, 0, 0]","[0, 0, 0]","[6.496568099999422, 21.397666000000754, 30.0958810000011]",0.015151069997955346,30.110980369998288,['A3'],['B2'],['C2'],['blue'],['yellow'],['salmon'],1766.4678480000002,None,8.0,1.646755400000984,1766.4678480000002,None,1780.1338825999992,None,9.0,3.5152181000012206,1772.667615800001,None,10.0,7.415286299998115,1768.2177183000022,None,9.0,4.481366899999557,<function functionImportanceA at 0x000002078821DD90>,<function functionImportanceC at 0x0000020785CAAEA0>,<function functionImportanceB at 0x000002078821DA60>,,,1.0,3.69771700000274,5.0,4.031556800000544,3.0,4.481366899999557,<function functiondiffA at 0x000002078821D730>,<function functiondiffC at 0x000002078821DC80>,<function functiondiffB at 0x000002078821D1E0>,,,,,1735.8874486000022,1783.6173858000002,None,1791.3505556000018,None,1787.3340310000021,None,21,001,2022_Jul_19_1601,2leo,2021.2.3,59.46448661903856,
3,29,Plan a day in the mountains ,Stimuli/29A1.jpg,Stimuli/29A2.jpg,Stimuli/29A3.jpg,Stimuli/29B1.jpg,Stimuli/29B2.jpg,Stimuli/29B3.jpg,Stimuli/29C1.jpg,Stimuli/29C2.jpg,Stimuli/29C3.jpg,,,,,0,22,22,29,,,,,,,,1794.899992999999,None,1795.9002991000016,None,1801.9002580000015,None,"[-0.203, -0.347]","[-0.2, 0.346]","[0.399, -0.003]","[0.066, -0.395]","[-0.377, 0.138]","[0.306, 0.255]","[0.304, -0.26]","[-0.378, -0.136]","[0.07, 0.393]",,18.027542799998628,22.078883499998483,14.861831399997754,"[0.32685185185185184, -0.14814814814814814, 0.05740740740740741]","[-0.275, 0.29074074074074074, -0.39351851851851855]","[1, 1, 1]","[0, 0, 0]","[0, 0, 0]","[14.854390299999068, 18.020542999998725, 22.071705800000927]",0.006498199996713083,22.077420699999493,['A2'],['B1'],['C1'],['salmon'],['blue'],['yellow'],1825.6161138999996,None,6.0,4.929059300000517,1825.6161138999996,None,1835.515841299999,None,5.0,2.9152748999986215,1838.4658983000008,None,9.0,4.098440900001151,1830.6660813000017,None,8.0,4.8981117000003,<function functionImportanceA at 0x000002078821D488>,<function functionImportanceB at 0x0000020785CAA9D8>,<function functionImportanceC at 0x0000020787D3E048>,,,4.0,4.44798019999871,6.0,5.247611600003438,1.0,4.8981117000003,<function functiondiffB at 0x000002078821D598>,<function functiondiffC at 0x000002078821D6A8>,<function functiondiffA at 0x00000207829FFF28>,,,,,1803.0602236000013,1850.5822694000017,None,1842.5491457999997,None,1847.7989545000019,None,21,001,2022_Jul_19_1601,2leo,2021.2.3,59.46448661903856,
3,27,Plan what festival to visit with your friends,Stimuli/27A1.jpg,Stimuli/27A2.jpg,Stimuli/27A3.jpg,Stimuli/27B1.jpg,Stimuli/27B2.jpg,Stimuli/27B3.jpg,Stimuli/27C1.jpg,Stimuli/27C2.jpg,Stimuli/27C3.jpg,,,,,0,23,23,27,,,,,,,,1854.5315931000005,None,1855.532093599999,None,1861.5318977999996,None,"[-0.203, -0.347]","[-0.2, 0.346]","[0.399, -0.003]","[0.304, -0.26]","[-0.378, -0.136]","[0.07, 0.393]","[0.066, -0.395]","[-0.377, 0.138]","[0.306, 0.255]",,26.389938709995477,8.307464409994282,25.45687870999609,"[-0.3490740740740741, 0.0787037037037037, -0.13703703703703704]","[-0.11388888888888889, -0.3416666666666667, -0.3388888888888889]","[1, 1, 1]","[0, 0, 0]","[0, 0, 0]","[8.294373200002155, 25.44364680000217, 26.37725970000247]",0.012280709994229255,26.38921100999505,['A1'],['B2'],['C1'],['salmon'],['blue'],['yellow'],1889.4976165000007,None,8.0,1.86326679999911,1889.4976165000007,None,1898.047462800001,None,4.0,6.631774400000722,1891.4317336000022,None,6.0,3.781271600000764,1895.2142110999994,None,8.0,2.7989420000012615,<function functionImportanceC at 0x0000020787D3E7B8>,<function functionImportanceA at 0x000002078821D950>,<function functionImportanceB at 0x0000020787D3E730>,,,2.0,5.031263799999579,4.0,5.06469549999747,2.0,2.7989420000012615,<function functiondiffC at 0x0000020787D3E268>,<function functiondiffA at 0x000002078821D268>,<function functiondiffB at 0x000002078821D620>,,,,,1862.6375002000023,1909.9305139999997,None,1914.980327600002,None,1904.6640377000003,None,21,001,2022_Jul_19_1601,2leo,2021.2.3,59.46448661903856,
3,44,Plan a party at your place,Stimuli/44A1.jpg,Stimuli/44A2.jpg,Stimuli/44A3.jpg,Stimuli/44B1.jpg,Stimuli/44B2.jpg,Stimuli/44B3.jpg,Stimuli/44C1.jpg,Stimuli/44C2.jpg,Stimuli/44C3.jpg,,,,,0,24,24,44,,,,,,,,1919.5631725999992,None,1920.5635024000003,None,1926.5634471000012,None,"[0.306, 0.255]","[0.066, -0.395]","[-0.377, 0.138]","[0.07, 0.393]","[0.304, -0.26]","[-0.378, -0.136]","[0.399, -0.003]","[-0.203, -0.347]","[-0.2, 0.346]",,17.97403433999716,6.60771104000014,10.474735439998767,"[-0.31574074074074077, -0.1574074074074074, 0.08518518518518518]","[-0.10740740740740741, -0.3175925925925926, -0.3490740740740741]","[1, 1, 1]","[0, 0, 0]","[0, 0, 0]","[6.594066500001645, 10.460958300001948, 17.960772800000996]",0.012754839997796807,17.9732684399969,['A2'],['B3'],['C2'],['blue'],['yellow'],['salmon'],1946.1294643,None,7.0,1.997001800002181,1946.1294643,None,1957.9459078,None,9.0,3.2317294999993464,1951.8626416000006,None,8.0,6.065041199999541,1948.1794106000016,None,7.0,3.6476704999986396,<function functionImportanceA at 0x0000020787D3EEA0>,<function functionImportanceC at 0x0000020787D3ED90>,<function functionImportanceB at 0x0000020787D3E6A8>,,,3.0,6.047764399998414,3.0,3.064364800000476,1.0,3.6476704999986396,<function functiondiffC at 0x0000020785CAAB70>,<function functiondiffB at 0x000002078821D510>,<function functiondiffA at 0x000002078821DF28>,,,,,1927.6836384000017,1966.862506100002,None,1963.7958393000008,None,1961.1624432999997,None,21,001,2022_Jul_19_1601,2leo,2021.2.3,59.46448661903856,
3,5,Plan a birthday party for your younger self when you turn eight,Stimuli/5A1.jpg,Stimuli/5A2.jpg,Stimuli/5A3.jpg,Stimuli/5B1.jpg,Stimuli/5B2.jpg,Stimuli/5B3.jpg,Stimuli/5C1.jpg,Stimuli/5C2.jpg,Stimuli/5C3.jpg,,,,,0,25,25,5,,,,,,,,1972.428364899999,None,1973.4285474999997,None,1979.4286711000022,None,"[-0.378, -0.136]","[0.07, 0.393]","[0.304, -0.26]","[-0.2, 0.346]","[0.399, -0.003]","[-0.203, -0.347]","[-0.377, 0.138]","[0.306, 0.255]","[0.066, -0.395]",,25.159930319972773,12.16059611997116,7.760902019970672,"[0.049074074074074076, 0.37592592592592594, 0.2962962962962963]","[-0.35185185185185186, -0.03425925925925926, -0.26666666666666666]","[1, 1, 1]","[0, 0, 0]","[0, 0, 0]","[7.755585099999735, 12.155631500001618, 25.155107200000202]",0.004180319971055724,25.159136119971663,['A3'],['B2'],['C3'],['salmon'],['yellow'],['blue'],2010.8443174000022,None,7.0,2.2969683000010264,2010.8443174000022,None,2031.4935234000004,None,0.0,5.431924900000013,2020.9947428000014,None,7.0,9.597996499996952,2015.7776826000008,None,6.0,7.14776669999992,<function functionImportanceA at 0x0000020787D3E510>,<function functionImportanceC at 0x0000020787D3EBF8>,<function functionImportanceB at 0x0000020787D3ED08>,,,6.0,5.598084099998232,-0.0,4.697821500001737,2.0,7.14776669999992,<function functiondiffC at 0x0000020787D3E8C8>,<function functiondiffB at 0x0000020787D3EC80>,<function functiondiffA at 0x000002078821D2F0>,,,,,1985.2246712000015,2050.476906300002,None,2045.3268303000004,None,2035.5270019000018,None,21,001,2022_Jul_19_1601,2leo,2021.2.3,59.46448661903856,
3,33,Plan the items to decorate your Christmas tree,Stimuli/33A1.jpg,Stimuli/33A2.jpg,Stimuli/33A3.jpg,Stimuli/33B1.jpg,Stimuli/33B2.jpg,Stimuli/33B3.jpg,Stimuli/33C1.jpg,Stimuli/33C2.jpg,Stimuli/33C3.jpg,,,,,0,26,26,33,,,,,,,,2054.8094261000006,None,2055.811334599999,None,2061.8096934999994,None,"[-0.378, -0.136]","[0.304, -0.26]","[0.07, 0.393]","[-0.2, 0.346]","[-0.203, -0.347]","[0.399, -0.003]","[-0.377, 0.138]","[0.066, -0.395]","[0.306, 0.255]",,19.051352159996895,15.918442559996038,7.452185359994473,"[0.06851851851851852, -0.13333333333333333, 0.27037037037037037]","[-0.387037037037037, 0.3037037037037037, -0.26296296296296295]","[1, 1, 1]","[0, 0, 0]","[0, 0, 0]","[7.4467586999999185, 15.913371800001187, 19.046513600002072]",0.00434465999569511,19.050705359994026,['A2'],['B1'],['C2'],['blue'],['salmon'],['yellow'],2083.042151400001,None,9.0,3.880609199997707,2083.042151400001,None,2087.025883800001,None,-0.0,3.0484529999994265,2090.0921138000012,None,6.0,3.29860760000156,2093.9753777000005,None,7.0,3.1647639000002528,<function functionImportanceB at 0x0000020787D3E840>,<function functionImportanceC at 0x0000020787D3E950>,<function functionImportanceA at 0x0000020787D3E598>,,,-0.0,2.148211799998535,4.0,5.065143299998454,1.0,3.1647639000002528,<function functiondiffC at 0x0000020787D3E0D0>,<function functiondiffB at 0x0000020787D3E1E0>,<function functiondiffA at 0x0000020787D3E158>,,,,,2063.5284097000003,2105.558432599999,None,2100.3417727000015,None,2096.5251535999996,None,21,001,2022_Jul_19_1601,2leo,2021.2.3,59.46448661903856,
3,12,Plan the ingredients to mix yourself a cocktail,Stimuli/12A1.jpg,Stimuli/12A2.jpg,Stimuli/12A3.jpg,Stimuli/12B1.jpg,Stimuli/12B2.jpg,Stimuli/12B3.jpg,Stimuli/12C1.jpg,Stimuli/12C2.jpg,Stimuli/12C3.jpg,,,,,0,27,27,12,,,,,,,,2107.0913623000015,None,2108.091618800001,None,2114.0915236,None,"[0.306, 0.255]","[0.066, -0.395]","[-0.377, 0.138]","[0.07, 0.393]","[0.304, -0.26]","[-0.378, -0.136]","[0.399, -0.003]","[-0.203, -0.347]","[-0.2, 0.346]",,15.911881339998217,4.946274739999353,12.395874239999102,"[0.325, -0.18796296296296297, 0.33055555555555555]","[-0.2777777777777778, 0.27314814814814814, 0.24722222222222223]","[1, 1, 1]","[0, 0, 0]","[0, 0, 0]","[4.938823600001342, 12.388130300001649, 15.904787600000418]",0.0066520399996079504,15.911203740000929,['A1'],['B2'],['C3'],['salmon'],['yellow'],['blue'],2131.607449400002,None,7.0,2.9635581000002276,2131.607449400002,None,2137.8908238000004,None,7.0,2.9984252999965975,2134.6409430999993,None,8.0,3.230925500000012,2140.9405896999997,None,7.0,2.9481664999984787,<function functionImportanceC at 0x000002078CA79620>,<function functionImportanceB at 0x0000020787D3E400>,<function functionImportanceA at 0x0000020785CAAD08>,,,-0.0,4.698152499997377,1.0,9.647778400001698,3.0,2.9481664999984787,<function functiondiffB at 0x0000020787D3E620>,<function functiondiffA at 0x000002078821D048>,<function functiondiffC at 0x0000020785CAA6A8>,,,,,2115.2172957000002,2153.5072175000023,None,2143.840550500001,None,2158.2236740000008,None,21,001,2022_Jul_19_1601,2leo,2021.2.3,59.46448661903856,
3,23,Plan a city trip,Stimuli/23A1.jpg,Stimuli/23A2.jpg,Stimuli/23A3.jpg,Stimuli/23B1.jpg,Stimuli/23B2.jpg,Stimuli/23B3.jpg,Stimuli/23C1.jpg,Stimuli/23C2.jpg,Stimuli/23C3.jpg,,,,,0,28,28,23,,,,,,,,2162.4564002000006,None,2163.4567026000004,None,2169.4567411999997,None,"[0.066, -0.395]","[-0.377, 0.138]","[0.306, 0.255]","[0.304, -0.26]","[-0.378, -0.136]","[0.07, 0.393]","[-0.203, -0.347]","[-0.2, 0.346]","[0.399, -0.003]",,20.966717139999673,29.90022423999835,6.3507686400007515,"[-0.18796296296296297, -0.37222222222222223, 0.003703703703703704]","[0.337037037037037, 0.13425925925925927, 0.44166666666666665]","[1, 1, 1]","[0, 0, 0]","[0, 0, 0]","[6.349061199998687, 20.96548719999919, 29.898683199997322]",0.0006991400005063042,29.899052839999058,['A2'],['B3'],['C2'],['yellow'],['salmon'],['blue'],2200.9721938000002,None,7.0,2.262980700001208,2200.9721938000002,None,2215.205326700001,None,9.0,3.364905300000828,2210.555443699999,None,8.0,4.665233700001409,2203.2891308,None,9.0,7.197819000000891,<function functionImportanceA at 0x000002078821DD08>,<function functionImportanceC at 0x0000020787D3E378>,<function functionImportanceB at 0x0000020787D3EA60>,,,7.0,4.164520900001662,8.0,3.5980788999986544,1.0,7.197819000000891,<function functiondiffC at 0x000002078CA79378>,<function functiondiffA at 0x0000020787D3EE18>,<function functiondiffB at 0x0000020787D3EB70>,,,,,2170.5887397000006,2221.1884882000013,None,2225.3716201999996,None,2218.555350300001,None,21,001,2022_Jul_19_1601,2leo,2021.2.3,59.46448661903856,
3,6,Plan your wedding,Stimuli/6A1.jpg,Stimuli/6A2.jpg,Stimuli/6A3.jpg,Stimuli/6B1.jpg,Stimuli/6B2.jpg,Stimuli/6B3.jpg,Stimuli/6C1.jpg,Stimuli/6C2.jpg,Stimuli/6C3.jpg,,,,,0,29,29,6,,,,,,,,2228.488293800001,None,2229.488167899999,None,2235.4882031000016,None,"[0.304, -0.26]","[-0.378, -0.136]","[0.07, 0.393]","[0.066, -0.395]","[-0.377, 0.138]","[0.306, 0.255]","[-0.203, -0.347]","[-0.2, 0.346]","[0.399, -0.003]",,29.222136589978618,9.823050389979471,19.023291389978112,"[0.08981481481481482, 0.4962962962962963, 0.4740740740740741, -0.4388888888888889]","[-0.44074074074074077, 0.013888888888888888, 0.010185185185185186, -0.15]","[1, 1, 1, 1]","[0, 0, 0, 0]","[0, 0, 0, 0]","[9.815337899999577, 18.564921900000627, 19.015154299999267, 29.214606900000945]",0.0070376899784605484,29.22153218997846,['A2'],['B1'],['C3'],['blue'],['salmon'],['yellow'],2270.2703857000015,None,7.0,2.2805711000000883,2270.2703857000015,None,2283.822346500001,None,2.0,3.814733700000943,2279.0699757,None,2.0,4.2818167000004905,2273.7704061000004,None,9.0,5.2476875000029395,<function functionImportanceA at 0x0000020787D3E2F0>,<function functionImportanceC at 0x000002078CA79B70>,<function functionImportanceB at 0x000002078CA79BF8>,,,8.0,6.097863499999221,4.0,5.931008299998211,2.0,5.2476875000029395,<function functiondiffB at 0x000002078CA797B8>,<function functiondiffA at 0x000002078CA79D90>,<function functiondiffC at 0x000002078CA79400>,,,,,2240.591421600002,2292.2365384000004,None,2286.4034579,None,2298.4363651999993,None,21,001,2022_Jul_19_1601,2leo,2021.2.3,59.46448661903856,
3,21,Plan your sandwich for lunch,Stimuli/21A1.jpg,Stimuli/21A2.jpg,Stimuli/21A3.jpg,Stimuli/21B1.jpg,Stimuli/21B2.jpg,Stimuli/21B3.jpg,Stimuli/21C1.jpg,Stimuli/21C2.jpg,Stimuli/21C3.jpg,,,,,0,30,30,21,,,,,,,,2311.3527383,None,2312.3526819,None,2318.3524720000023,None,"[-0.2, 0.346]","[-0.203, -0.347]","[0.399, -0.003]","[-0.378, -0.136]","[0.304, -0.26]","[0.07, 0.393]","[-0.377, 0.138]","[0.066, -0.395]","[0.306, 0.255]",,5.2475323299950105,21.180435129994294,17.764475629996014,"[-0.14722222222222223, -0.325, -0.3351851851851852]","[0.31574074074074077, 0.1574074074074074, -0.08981481481481482]","[1, 1, 1]","[0, 0, 0]","[0, 0, 0]","[5.2307473000000755, 17.747180300000764, 21.163358900001185]",0.01634912999725202,21.179592029995547,['A1'],['B1'],['C1'],['yellow'],['blue'],['salmon'],2341.1682347999995,None,9.0,1.5302015999986907,2341.1682347999995,None,2347.3682068000016,None,3.0,2.9150249999984226,2350.3016795000003,None,10.0,4.08186189999833,2342.801826499999,None,9.0,4.547700800001621,<function functionImportanceA at 0x000002078CA792F0>,<function functionImportanceB at 0x000002078CA79840>,<function functionImportanceC at 0x000002078CA79AE8>,,,0.0,2.164506599998276,3.0,3.981066700001975,3.0,4.547700800001621,<function functiondiffA at 0x000002078CA799D8>,<function functiondiffB at 0x000002078CA791E0>,<function functiondiffC at 0x000002078CA79C80>,,,,,2319.518541900001,2354.3349505000006,None,2356.518033700002,None,2360.5013008000024,None,21,001,2022_Jul_19_1601,2leo,2021.2.3,59.46448661903856,
3,22,Plan a beach day with your friends,Stimuli/22A1.jpg,Stimuli/22A2.jpg,Stimuli/22A3.jpg,Stimuli/22B1.jpg,Stimuli/22B2.jpg,Stimuli/22B3.jpg,Stimuli/22C1.jpg,Stimuli/22C2.jpg,Stimuli/22C3.jpg,,,,,0,31,31,22,,,,,,,,2366.3682111999988,None,2367.3677817999996,None,2373.367693100001,None,"[-0.203, -0.347]","[-0.2, 0.346]","[0.399, -0.003]","[0.304, -0.26]","[-0.378, -0.136]","[0.07, 0.393]","[0.066, -0.395]","[-0.377, 0.138]","[0.306, 0.255]",,13.692875369997637,21.34273316999679,9.893291869997483,"[0.07314814814814814, 0.33796296296296297, 0.2814814814814815]","[-0.41203703703703703, -0.03796296296296296, -0.3138888888888889]","[1, 1, 1]","[0, 0, 0]","[0, 0, 0]","[9.878580600001442, 13.678528299999016, 21.328212799999164]",0.013744869997026399,21.341825469997275,['A3'],['B1'],['C1'],['salmon'],['blue'],['yellow'],2396.316959800002,None,9.0,5.446942200000194,2396.316959800002,None,2410.0998266999995,None,9.0,3.181598800001666,2401.850274100001,None,3.0,5.197833300000639,2407.049913400002,None,8.0,3.048453999999765,<function functionImportanceC at 0x000002078CA798C8>,<function functionImportanceA at 0x0000020785CAAD90>,<function functionImportanceB at 0x0000020785CAA598>,,,0.0,2.1976156999990053,2.0,4.048142099996767,1.0,3.048453999999765,<function functiondiffA at 0x000002078CA79730>,<function functiondiffB at 0x000002078CA79EA0>,<function functiondiffC at 0x000002078CA79F28>,,,,,2374.5042507,2413.284144699999,None,2415.499762899999,None,2419.566213500002,None,21,001,2022_Jul_19_1601,2leo,2021.2.3,59.46448661903856,
3,15,Plan your own Pasta for lunch,Stimuli/15A1.jpg,Stimuli/15A2.jpg,Stimuli/15A3.jpg,Stimuli/15B1.jpg,Stimuli/15B2.jpg,Stimuli/15B3.jpg,Stimuli/15C1.jpg,Stimuli/15C2.jpg,Stimuli/15C3.jpg,,,,,0,32,32,15,,,,,,,,2421.9834978,None,2422.984457999999,None,2428.999630099999,None,"[0.306, 0.255]","[-0.377, 0.138]","[0.066, -0.395]","[0.07, 0.393]","[-0.378, -0.136]","[0.304, -0.26]","[0.399, -0.003]","[-0.2, 0.346]","[-0.203, -0.347]",,3.9216684899984102,12.239034189995436,15.138640089997352,"[0.3, 0.11574074074074074, -0.15833333333333333]","[0.29259259259259257, 0.42407407407407405, -0.32222222222222224]","[1, 1, 1]","[0, 0, 0]","[0, 0, 0]","[3.9143377999971563, 12.247238299998571, 15.130576100000326]",0.006914689995028311,15.137334489994828,['A1'],['B1'],['C3'],['blue'],['salmon'],['yellow'],2446.4987524999997,None,9.0,1.5302186000008078,2446.4987524999997,None,2455.632012599999,None,8.0,3.181708300002356,2452.0169153999996,None,10.0,4.315228799998295,2448.1655756,None,8.0,3.198134599999321,<function functionImportanceA at 0x0000020785CAA378>,<function functionImportanceC at 0x000002078CB64598>,<function functionImportanceB at 0x000002078CB649D8>,,,0.0,4.681643200001417,3.0,4.697972999998456,1.0,3.198134599999321,<function functiondiffB at 0x000002078821D400>,<function functiondiffC at 0x000002078CA79E18>,<function functiondiffA at 0x0000020787D3EF28>,,,,,2430.8984415000014,2466.098246100002,None,2458.815177299999,None,2463.6650969,None,21,001,2022_Jul_19_1601,2leo,2021.2.3,59.46448661903856,
3,36,Plan your shopping for new clothing,Stimuli/36A1.jpg,Stimuli/36A2.jpg,Stimuli/36A3.jpg,Stimuli/36B1.jpg,Stimuli/36B2.jpg,Stimuli/36B3.jpg,Stimuli/36C1.jpg,Stimuli/36C2.jpg,Stimuli/36C3.jpg,,,,,0,33,33,36,,,,,,,,2470.2991170999994,None,2471.2980651,None,2477.298066700001,None,"[-0.377, 0.138]","[0.306, 0.255]","[0.066, -0.395]","[-0.378, -0.136]","[0.07, 0.393]","[0.304, -0.26]","[-0.2, 0.346]","[0.399, -0.003]","[-0.203, -0.347]",,20.224059909996868,14.857990409997,7.124848209998163,"[0.43425925925925923, 0.10740740740740741, 0.33611111111111114]","[-0.005555555555555556, 0.3574074074074074, 0.2037037037037037]","[1, 1, 1]","[0, 0, 0]","[0, 0, 0]","[7.1194264000005205, 14.852804699999979, 20.21909240000241]",0.004406609998113709,20.22346350999942,['A2'],['B2'],['C2'],['blue'],['salmon'],['yellow'],2499.1138290000017,None,7.0,2.1971125999989454,2499.1138290000017,None,2507.4806826999993,None,8.0,4.5317843000011635,2504.230601899999,None,3.0,3.2655331999994814,2501.380679599999,None,9.0,2.814685199999076,<function functionImportanceA at 0x000002078CB648C8>,<function functionImportanceC at 0x000002078CB64730>,<function functionImportanceB at 0x000002078CB640D0>,,,3.0,2.764406299997063,2.0,4.798006600001827,1.0,2.814685199999076,<function functiondiffC at 0x000002078CB64268>,<function functiondiffA at 0x000002078821D8C8>,<function functiondiffB at 0x000002078CB642F0>,,,,,2478.4108629,2515.2803387999993,None,2518.0636062000012,None,2511.9969530000017,None,21,001,2022_Jul_19_1601,2leo,2021.2.3,59.46448661903856,
3,40,Plan to see a sports event ,Stimuli/40A1.jpg,Stimuli/40A2.jpg,Stimuli/40A3.jpg,Stimuli/40B1.jpg,Stimuli/40B2.jpg,Stimuli/40B3.jpg,Stimuli/40C1.jpg,Stimuli/40C2.jpg,Stimuli/40C3.jpg,,,,,0,34,34,40,,,,,,,,2522.3809046999995,None,2523.3799543999994,None,2529.3800432999997,None,"[-0.203, -0.347]","[0.399, -0.003]","[-0.2, 0.346]","[0.066, -0.395]","[0.306, 0.255]","[-0.377, 0.138]","[0.304, -0.26]","[0.07, 0.393]","[-0.378, -0.136]",,11.034199739995529,4.767801039997721,18.78430713999478,"[0.25833333333333336, 0.42777777777777776, 0.09907407407407408]","[0.26481481481481484, -0.062037037037037036, 0.3435185185185185]","[1, 1, 1]","[0, 0, 0]","[0, 0, 0]","[4.765099399999599, 11.031760699999722, 18.781375200000184]",0.0019402399957471061,18.7831226399976,['A2'],['B2'],['C2'],['yellow'],['blue'],['salmon'],2549.945899000002,None,10.0,2.430881300002511,2549.945899000002,None,2561.078951700001,None,10.0,2.4483638999990944,2552.446010200001,None,8.0,4.730996499998582,2557.2125791,None,9.0,3.731865199999447,<function functionImportanceC at 0x000002078CA79510>,<function functionImportanceA at 0x000002078CA79598>,<function functionImportanceB at 0x000002078CA79950>,,,2.0,2.7311913000012282,-0.0,2.0479830999975093,-0.0,3.731865199999447,<function functiondiffB at 0x000002078CB641E0>,<function functiondiffC at 0x000002078CB64A60>,<function functiondiffA at 0x000002078CB64048>,,,,,2530.6808286000014,2568.6289204999994,None,2563.4123304000022,None,2565.4456095000023,None,21,001,2022_Jul_19_1601,2leo,2021.2.3,59.46448661903856,
3,26,Plan how to wash one round of your laundry ,Stimuli/26A1.jpg,Stimuli/26A2.jpg,Stimuli/26A3.jpg,Stimuli/26B1.jpg,Stimuli/26B2.jpg,Stimuli/26B3.jpg,Stimuli/26C1.jpg,Stimuli/26C2.jpg,Stimuli/26C3.jpg,,,,,0,35,35,26,,,,,,,,2570.880049200001,None,2571.8952390000013,None,2577.8952979000023,None,"[-0.2, 0.346]","[0.399, -0.003]","[-0.203, -0.347]","[-0.377, 0.138]","[0.306, 0.255]","[0.066, -0.395]","[-0.378, -0.136]","[0.07, 0.393]","[0.304, -0.26]",,27.299288710000837,12.033534710000822,17.733229110002867,"[-0.3675925925925926, -0.3972222222222222, 0.37592592592592594]","[0.08703703703703704, -0.1, 0.000925925925925926]","[1, 1, 1]","[0, 0, 0]","[0, 0, 0]","[12.024044400001003, 17.723466400002508, 27.289967000000615]",0.008805610003037145,27.29858111000067,['A2'],['B1'],['C1'],['salmon'],['blue'],['yellow'],2606.7776978,None,6.0,9.646672599999874,2606.7776978,None,2624.710655499999,None,7.0,4.581885100000363,2616.4942484999992,None,6.0,4.014391100001376,2620.5106276000006,None,2.0,4.165024800000538,<function functionImportanceC at 0x000002078CB64488>,<function functionImportanceA at 0x000002078CA79D08>,<function functionImportanceB at 0x000002078CA79A60>,,,5.0,6.0813827000019955,3.0,4.73129709999921,3.0,4.165024800000538,<function functiondiffC at 0x000002078CB64AE8>,<function functiondiffB at 0x000002078CB64F28>,<function functiondiffA at 0x000002078CB64510>,,,,,2579.0035714000005,2638.4600895000003,None,2633.7103744000015,None,2629.2772570000016,None,21,001,2022_Jul_19_1601,2leo,2021.2.3,59.46448661903856,
3,2,Plan which ingredients you want to use for cooking dinner today,Stimuli/2A1.jpg,Stimuli/2A2.jpg,Stimuli/2A3.jpg,Stimuli/2B1.jpg,Stimuli/2B2.jpg,Stimuli/2B3.jpg,Stimuli/2C1.jpg,Stimuli/2C2.jpg,Stimuli/2C3.jpg,,,,,0,36,36,2,,,,,,,,2644.0611781000007,None,2645.0601277000023,None,2651.059956600002,None,"[0.066, -0.395]","[-0.377, 0.138]","[0.306, 0.255]","[0.304, -0.26]","[-0.378, -0.136]","[0.07, 0.393]","[-0.203, -0.347]","[-0.2, 0.346]","[0.399, -0.003]",,8.073295199970744,20.039963599971088,10.840570099971956,"[0.32407407407407407, 0.3648148148148148, 0.1037037037037037]","[0.29444444444444445, 0.011111111111111112, 0.4212962962962963]","[1, 1, 1]","[0, 0, 0]","[0, 0, 0]","[8.060726899999281, 10.827414799998223, 20.027106800000183]",0.011956699971051421,20.03884319997087,['A3'],['B3'],['C3'],['yellow'],['blue'],['salmon'],2677.609029899999,None,9.0,1.7974720999991405,2677.609029899999,None,2682.7253843,None,7.0,6.597958899998048,2689.792150000001,None,10.0,3.2819140999999945,2687.1755459000015,None,8.0,3.0652265999997326,<function functionImportanceB at 0x000002078CF249D8>,<function functionImportanceA at 0x000002078CB64BF8>,<function functionImportanceC at 0x000002078CF24400>,,,4.0,4.6976271999992605,5.0,3.081144399999175,1.0,3.0652265999997326,<function functiondiffC at 0x000002078CF24488>,<function functiondiffB at 0x000002078CA79488>,<function functiondiffA at 0x000002078CB64840>,,,,,2657.115297299999,2698.9085495,None,2696.342101800001,None,2692.6087227999997,None,21,001,2022_Jul_19_1601,2leo,2021.2.3,59.46448661903856,
3,8,Plan the interior of your living-room ,Stimuli/8A1.jpg,Stimuli/8A2.jpg,Stimuli/8A3.jpg,Stimuli/8B1.jpg,Stimuli/8B2.jpg,Stimuli/8B3.jpg,Stimuli/8C1.jpg,Stimuli/8C2.jpg,Stimuli/8C3.jpg,,,,,0,37,37,8,,,,,,,,2702.8097017,None,2703.8248239999994,None,2709.8249448999995,None,"[-0.203, -0.347]","[-0.2, 0.346]","[0.399, -0.003]","[0.066, -0.395]","[-0.377, 0.138]","[0.306, 0.255]","[0.304, -0.26]","[-0.378, -0.136]","[0.07, 0.393]",,18.807649649977975,11.375179149978067,5.692128549977497,"[0.2638888888888889, 0.2777777777777778, -0.18333333333333332]","[-0.19907407407407407, 0.20185185185185187, -0.35462962962962963]","[1, 1, 1]","[0, 0, 0]","[0, 0, 0]","[5.675502600002801, 11.358639000001858, 18.79152140000224]",0.015684449976106407,18.807097849978163,['A1'],['B3'],['C1'],['yellow'],['salmon'],['blue'],2734.0407472000006,None,8.0,1.3303177999987383,2734.0407472000006,None,2744.5403227999996,None,9.0,5.081463599999552,2740.290722599999,None,9.0,4.348698900001182,2735.4740649000014,None,9.0,2.831288000001223,<function functionImportanceA at 0x000002078CF24268>,<function functionImportanceC at 0x000002078CF24378>,<function functionImportanceB at 0x000002078CF247B8>,,,3.0,2.8311673999996856,0.0,4.363920399999188,1.0,2.831288000001223,<function functiondiffC at 0x000002078CF24598>,<function functiondiffB at 0x000002078CA79268>,<function functiondiffA at 0x000002078CB64EA0>,,,,,2714.7822984000013,2758.0568955000017,None,2754.1903504,None,2748.2904756999997,None,21,001,2022_Jul_19_1601,2leo,2021.2.3,59.46448661903856,
3,34,Plan what car you want to buy,Stimuli/34A1.jpg,Stimuli/34A2.jpg,Stimuli/34A3.jpg,Stimuli/34B1.jpg,Stimuli/34B2.jpg,Stimuli/34B3.jpg,Stimuli/34C1.jpg,Stimuli/34C2.jpg,Stimuli/34C3.jpg,,,,,0,38,38,34,,,,,,,,2760.408922499999,None,2761.423262600001,None,2767.4234983999995,None,"[-0.378, -0.136]","[0.07, 0.393]","[0.304, -0.26]","[-0.2, 0.346]","[0.399, -0.003]","[-0.203, -0.347]","[-0.377, 0.138]","[0.306, 0.255]","[0.066, -0.395]",,5.95036060998973,12.150669809987448,15.133976109987998,"[-0.32314814814814813, -0.13240740740740742, 0.28425925925925927]","[-0.15925925925925927, 0.31574074074074077, 0.27037037037037037]","[1, 1, 1]","[0, 0, 0]","[0, 0, 0]","[5.938982400002715, 12.139037400000234, 15.122025500000746]",0.010948909988655942,15.132840109989047,['A1'],['B1'],['C2'],['blue'],['salmon'],['yellow'],2786.1560118000016,None,10.0,1.4807370000016817,2786.1560118000016,None,2788.7225770000005,None,10.0,3.864164200000232,2794.9224146000015,None,10.0,4.482252599998901,2792.6059774999994,None,10.0,3.24868769999739,<function functionImportanceB at 0x000002078CF24BF8>,<function functionImportanceA at 0x000002078CF24B70>,<function functionImportanceC at 0x000002078CF24D08>,,,-0.0,2.7141870000014023,-0.0,2.2813913999998476,-0.0,3.24868769999739,<function functiondiffC at 0x000002078CF24D90>,<function functiondiffA at 0x000002078CF24048>,<function functiondiffB at 0x000002078CF24EA0>,,,,,2770.567205899999,2803.1389406000017,None,2805.7890241000023,None,2799.3224298999994,None,21,001,2022_Jul_19_1601,2leo,2021.2.3,59.46448661903856,
3,14,Plan your own Pizza for dinner,Stimuli/14A1.jpg,Stimuli/14A2.jpg,Stimuli/14A3.jpg,Stimuli/14B1.jpg,Stimuli/14B2.jpg,Stimuli/14B3.jpg,Stimuli/14C1.jpg,Stimuli/14C2.jpg,Stimuli/14C3.jpg,,,,,0,39,39,14,,,,,,,,2807.3409573999998,None,2808.3570481999996,None,2814.3554986000017,None,"[0.306, 0.255]","[-0.377, 0.138]","[0.066, -0.395]","[0.07, 0.393]","[-0.378, -0.136]","[0.304, -0.26]","[0.399, -0.003]","[-0.2, 0.346]","[-0.203, -0.347]",,13.866851099999622,19.9833398999981,6.933858799999143,"[0.4287037037037037, -0.3148148148148148, 0.3074074074074074]","[-0.008333333333333333, 0.09537037037037037, -0.24351851851851852]","[1, 1, 1]","[0, 0, 0]","[0, 0, 0]","[6.932169300001988, 13.86560670000108, 19.981725300000107]",0.0007410999969579279,19.98235119999663,['A2'],['B3'],['C1'],['yellow'],['salmon'],['blue'],2835.9878850000023,None,8.0,1.780460399997537,2835.9878850000023,None,2837.9047665,None,8.0,4.064323599999625,2841.8878767999995,None,7.0,2.314994600001228,2844.287887900002,None,4.0,2.681990199998836,<function functionImportanceB at 0x000002078CF24730>,<function functionImportanceC at 0x000002078CF24AE8>,<function functionImportanceA at 0x000002078CB64D08>,,,5.0,2.64793439999994,3.0,2.6144698999996763,1.0,2.681990199998836,<function functiondiffC at 0x000002078CF24840>,<function functiondiffB at 0x000002078CF24E18>,<function functiondiffA at 0x000002078CF24510>,,,,,2815.5212113999987,2852.2376597,None,2849.6210986000006,None,2846.9211412000004,None,21,001,2022_Jul_19_1601,2leo,2021.2.3,59.46448661903856,
3,3,Plan a movie night with a friend,Stimuli/3A1.jpg,Stimuli/3A2.jpg,Stimuli/3A3.jpg,Stimuli/3B1.jpg,Stimuli/3B2.jpg,Stimuli/3B3.jpg,Stimuli/3C1.jpg,Stimuli/3C2.jpg,Stimuli/3C3.jpg,,,,,0,40,40,3,,,,,,,,2854.406137400001,None,2855.420662200002,None,2861.4207647000003,None,"[-0.2, 0.346]","[0.399, -0.003]","[-0.203, -0.347]","[-0.378, -0.136]","[0.07, 0.393]","[0.304, -0.26]","[-0.377, 0.138]","[0.306, 0.255]","[0.066, -0.395]",,5.337820499986265,8.304565099984757,10.27116879998357,"[-0.15648148148148147, 0.3, 0.3175925925925926]","[-0.35462962962962963, -0.25092592592592594, 0.2833333333333333]","[1, 1, 1]","[0, 0, 0]","[0, 0, 0]","[5.330717699998786, 8.29722110000148, 10.263628799999424]",0.006456999984948197,10.26997889998529,['A3'],['B3'],['C2'],['blue'],['salmon'],['yellow'],2875.6868558999995,None,10.0,1.6303289999996196,2875.6868558999995,None,2886.869688300001,None,9.0,5.26534189999802,2879.086901400002,None,9.0,5.231330300000991,2882.636646400002,None,10.0,3.4983432999979414,<function functionImportanceC at 0x000002078D4B37B8>,<function functionImportanceA at 0x000002078CF24F28>,<function functionImportanceB at 0x000002078CB64378>,,,-0.0,2.64725670000189,0.0,2.714785700001812,0.0,3.4983432999979414,<function functiondiffA at 0x000002078CF24A60>,<function functiondiffB at 0x000002078CF24950>,<function functiondiffC at 0x000002078D4B3598>,,,,,2864.9559401000006,2891.4032566999995,None,2894.4361910000007,None,2897.136408000002,None,21,001,2022_Jul_19_1601,2leo,2021.2.3,59.46448661903856,
3,0,Plan a barbecue,Stimuli/0A1.jpg,Stimuli/0A2.jpg,Stimuli/0A3.jpg,Stimuli/0B1.jpg,Stimuli/0B2.jpg,Stimuli/0B3.jpg,Stimuli/0C1.jpg,Stimuli/0C2.jpg,Stimuli/0C3.jpg,,,,,0,41,41,0,,,,,,,,2898.2884207999996,None,2899.3044286000004,None,2905.3027323999995,None,"[-0.378, -0.136]","[0.07, 0.393]","[0.304, -0.26]","[-0.377, 0.138]","[0.306, 0.255]","[0.066, -0.395]","[-0.2, 0.346]","[0.399, -0.003]","[-0.203, -0.347]",,8.541351739990205,4.308090339993214,21.64154993999182,"[-0.3768518518518518, 0.0824074074074074, -0.14444444444444443]","[0.14814814814814814, 0.3416666666666667, -0.30925925925925923]","[1, 1, 1]","[0, 0, 0]","[0, 0, 0]","[4.295953200002259, 8.529420900002151, 21.629001200002676]",0.011424639993492747,21.640135439993173,['A2'],['B1'],['C3'],['blue'],['salmon'],['yellow'],2929.8852026000022,None,7.0,2.114075800000137,2929.8852026000022,None,2938.5517824000017,None,9.0,2.8484966999967583,2932.118688999999,None,8.0,3.2642713999994157,2936.668564800002,None,9.0,3.148257900000317,<function functionImportanceC at 0x000002078D4B32F0>,<function functionImportanceA at 0x000002078CB64D90>,<function functionImportanceB at 0x000002078D4B31E0>,,,1.0,2.580942700002197,1.0,4.231172300002072,3.0,3.148257900000317,<function functiondiffB at 0x000002078CF24620>,<function functiondiffC at 0x000002078D4B38C8>,<function functiondiffA at 0x000002078CB647B8>,,,,,2907.789973900002,2948.985001699999,None,2941.3351841000003,None,2945.601617200002,None,21,001,2022_Jul_19_1601,2leo,2021.2.3,59.46448661903856,
3,20,Plan a tea party with your friends,Stimuli/20A1.jpg,Stimuli/20A2.jpg,Stimuli/20A3.jpg,Stimuli/20B1.jpg,Stimuli/20B2.jpg,Stimuli/20B3.jpg,Stimuli/20C1.jpg,Stimuli/20C2.jpg,Stimuli/20C3.jpg,,,,,0,42,42,20,,,,,,,,2950.7041360000003,None,2951.7196958999994,None,2957.7181654000015,None,"[-0.2, 0.346]","[-0.203, -0.347]","[0.399, -0.003]","[-0.378, -0.136]","[0.304, -0.26]","[0.07, 0.393]","[-0.377, 0.138]","[0.066, -0.395]","[0.306, 0.255]",,16.68641701998422,21.253033919983864,5.570563419983955,"[0.35648148148148145, -0.2361111111111111, -0.3388888888888889]","[0.2740740740740741, -0.35462962962962963, -0.15555555555555556]","[1, 1, 1]","[0, 0, 0]","[0, 0, 0]","[5.554698699997971, 16.671316099997057, 21.237759699997696]",0.014584819982701447,21.252089919984428,['A2'],['B1'],['C3'],['salmon'],['yellow'],['blue'],2983.0171437999998,None,8.0,1.8472361999993154,2983.0171437999998,None,2987.3335614999996,None,7.0,6.880975499996566,2995.916936900001,None,5.0,3.115400699996826,2991.9004274,None,1.0,4.081375400000979,<function functionImportanceB at 0x000002078D4B3510>,<function functionImportanceA at 0x000002078D4B39D8>,<function functionImportanceC at 0x000002078D4B3400>,,,2.0,2.898004499998933,6.0,4.181218600002467,-0.0,4.081375400000979,<function functiondiffC at 0x000002078D4B3D90>,<function functiondiffB at 0x000002078D4B3D08>,<function functiondiffA at 0x000002078D4B3BF8>,,,,,2961.3116886999996,3009.433129699999,None,3005.783391000001,None,2999.033617600002,None,21,001,2022_Jul_19_1601,2leo,2021.2.3,59.46448661903856,
3,9,Plan a picnic with friends,Stimuli/9A1.jpg,Stimuli/9A2.jpg,Stimuli/9A3.jpg,Stimuli/9B1.jpg,Stimuli/9B2.jpg,Stimuli/9B3.jpg,Stimuli/9C1.jpg,Stimuli/9C2.jpg,Stimuli/9C3.jpg,,,,,0,43,43,9,,,,,,,,3011.8523434000017,None,3012.866279099999,None,3018.866279599999,None,"[-0.2, 0.346]","[-0.203, -0.347]","[0.399, -0.003]","[-0.378, -0.136]","[0.304, -0.26]","[0.07, 0.393]","[-0.377, 0.138]","[0.066, -0.395]","[0.306, 0.255]",,25.501169329971162,10.86842242997227,3.1356113299698336,"[-0.38055555555555554, 0.32407407407407407, -0.1287037037037037]","[0.1, -0.2712962962962963, -0.3175925925925926]","[1, 1, 1]","[0, 0, 0]","[0, 0, 0]","[3.119983800002956, 10.852965400001267, 25.4859749999996]",0.014700329971674364,25.50056402997143,['A2'],['B2'],['C1'],['salmon'],['blue'],['yellow'],3050.215274500002,None,7.0,4.43028939999931,3050.215274500002,None,3062.9483752000015,None,9.0,3.4652609000004304,3066.5321583000004,None,9.0,2.981622999999672,3056.1985625000016,None,6.0,6.864197000002605,<function functionImportanceA at 0x000002078CB64620>,<function functionImportanceB at 0x000002078CB64400>,<function functionImportanceC at 0x000002078CB64E18>,,,8.0,3.6981726000012713,5.0,3.764852799999062,0.0,6.864197000002605,<function functiondiffA at 0x000002078CF241E0>,<function functiondiffB at 0x000002078D4B30D0>,<function functiondiffC at 0x000002078D4B36A8>,,,,,3024.2639734000004,3068.5483214000014,None,3072.1315273,None,3076.0146725000013,None,21,001,2022_Jul_19_1601,2leo,2021.2.3,59.46448661903856,
3,31,Plan your order at a restaurant    ,Stimuli/31A1.jpg,Stimuli/31A2.jpg,Stimuli/31A3.jpg,Stimuli/31B1.jpg,Stimuli/31B2.jpg,Stimuli/31B3.jpg,Stimuli/31C1.jpg,Stimuli/31C2.jpg,Stimuli/31C3.jpg,,,,,0,44,44,31,,,,,,,,3077.7343136000018,None,3078.7477872000018,None,3084.747846099999,None,"[0.304, -0.26]","[-0.378, -0.136]","[0.07, 0.393]","[-0.203, -0.347]","[-0.2, 0.346]","[0.399, -0.003]","[0.066, -0.395]","[-0.377, 0.138]","[0.306, 0.255]",,6.132356009991781,15.648568609991344,19.58297660999233,"[-0.38981481481481484, -0.19814814814814816, 0.39166666666666666]","[-0.12037037037037036, -0.35833333333333334, 0.27870370370370373]","[1, 1, 1]","[0, 0, 0]","[0, 0, 0]","[6.115980500002479, 15.632022900001175, 19.566001099999994]",0.015881309991527814,19.581350709991966,['A2'],['B1'],['C3'],['yellow'],['blue'],['salmon'],3107.4136985000005,None,8.0,3.912569899999653,3107.4136985000005,None,3111.4467468000003,None,9.0,2.680888800001412,3118.6301262000015,None,1.0,3.8148043999972288,3115.565181500002,None,0.0,4.431284799997229,<function functionImportanceB at 0x000002078CF24158>,<function functionImportanceA at 0x000002078CF246A8>,<function functionImportanceC at 0x000002078D4B3488>,,,1.0,2.68113010000161,6.0,5.247031700000662,1.0,4.431284799997229,<function functiondiffB at 0x000002078CF242F0>,<function functiondiffA at 0x0000020787D3E9D8>,<function functiondiffC at 0x000002078CB64950>,,,,,3087.3823873,3127.946747000002,None,3122.3465656000008,None,3130.313302499999,None,21,001,2022_Jul_19_1601,2leo,2021.2.3,59.46448661903856,
