Condition,N_Scenario,written_scenario,ImageA1,ImageA2,ImageA3,ImageB1,ImageB2,ImageB3,ImageC1,ImageC2,ImageC3,trials_2.thisRepN,trials_2.thisTrialN,trials_2.thisN,trials_2.thisIndex,trial.thisRepN,trial.thisTrialN,trial.thisN,trial.thisIndex,button_2.started,button_2.stopped,button_2.numClicks,button_2.timesOn,button_2.timesOff,text.started,text.stopped,fixationcross1_started,fixationcross1_stopped,Scenario_started,Scenario_stopped,fixationcross2_started,fixationcross2_stopped,A1pos,A2pos,A3pos,B1pos,B2pos,B3pos,C1pos,C2pos,C3pos,﻿Imagesdecision_started,decisiontimeA,decisiontimeB,decisiontimeC,mouse_x,mouse_y,mouse_leftButton,mouse_midButton,mouse_rightButton,mouse_time,mouse_started,mouse_stopped,clicked_optionA,clicked_optionB,clicked_optionC,colour_category_A,colour_category_B,colour_category_C,question_confidence_started,question_confidence_stopped,slider_confidence_response,slider_confidence_rt,slider_confidence_started,slider_confidence_stopped,question_valueA_started,question_valueA_stopped,slider_valueA_response,slider_valueA_rt,question_valueB_started,question_valueB_stopped,slider_valueB_response,slider_valueB_rt,question_valueC_started,question_valueC_stopped,slider_valueC_response,slider_valueC_rt,Importance_First,Importance_Second,Importance_Third,question_diff_started,question_diff_stopped,slider_diffC_response,slider_diffC_rt,slider_diffA_response,slider_diffA_rt,slider_diffB_response,slider_diffB_rt,diff_First,diff_Second,diff_Third,button_3_started,button_3_stopped,text_2_started,text_2_stopped,Imagesdecision_started,question_diffB_started,question_diffB_stopped,question_diffC_started,question_diffC_stopped,question_diffA_started,question_diffA_stopped,participant,session,date,expName,psychopyVersion,frameRate,
3,2,Plan a party to celebrate your birthday,Stimuli/2A1t.jpg,Stimuli/2A2t.jpg,Stimuli/2A3t.jpg,Stimuli/2B1t.jpg,Stimuli/2B2t.jpg,Stimuli/2B3t.jpg,Stimuli/2C1t.jpg,Stimuli/2C2t.jpg,Stimuli/2C3t.jpg,0,0,0,0,,,,,35.58136939999531,None,1,[4.323635399996419],[4.32363900000928],35.58136939999531,None,80.84845340000174,None,81.85291339999822,None,87.85263269999996,None,"[0.304, -0.26]","[0.07, 0.393]","[-0.378, -0.136]","[-0.203, -0.347]","[0.399, -0.003]","[-0.2, 0.346]","[0.066, -0.395]","[0.306, 0.255]","[-0.377, 0.138]",91.86640469999111,9.331586260072072,25.28116746006708,13.998372960064444,"[0.31574074074074077, -0.3388888888888889, -0.2175925925925926]","[-0.2175925925925926, 0.09351851851851851, -0.3453703703703704]","[1, 1, 1]","[0, 0, 0]","[0, 0, 0]","[9.316526900001918, 13.982624099997338, 25.265824100002646]",0.014648060066974722,25.28039716006606,['A1'],['B1'],['C3'],['yellow'],['salmon'],['blue'],117.60156809999899,None,8.0,6.863754600009997,117.60156809999899,None,125.8180061000021,None,10.0,9.130746599999839,135.2512715000048,None,3.0,8.114951700001257,141.83464639999147,None,7.0,4.648028299998259,<function functionImportanceAt at 0x00000107DBEA1E18>,<function functionImportanceBt at 0x00000107EB4AAD08>,<function functionImportanceCt at 0x00000107EB4AAE18>,158.36759979999624,None,3.0,7.631181999997352,0.0,9.130746599999839,7.0,6.630295799986925,<function functiondiffCt at 0x00000107EC1D1C80>,<function functiondiffAt at 0x00000107EC1D10D0>,<function functiondiffBt at 0x00000107EC1D1D08>,,,,,,,,,,,,007,001,2022_Jun_14_1248,2leo,2021.2.3,60.00826913608638,
3,3,Plan one week of vacation,Stimuli/3A1t.jpg,Stimuli/3A2t.jpg,Stimuli/3A3t.jpg,Stimuli/3B1t.jpg,Stimuli/3B2t.jpg,Stimuli/3B3t.jpg,Stimuli/3C1t.jpg,Stimuli/3C2t.jpg,Stimuli/3C3t.jpg,0,1,1,1,,,,,,,,,,,,164.08384189999197,None,165.08384239999577,None,171.08366679999745,None,"[-0.203, -0.347]","[0.399, -0.003]","[-0.2, 0.346]","[0.066, -0.395]","[0.306, 0.255]","[-0.377, 0.138]","[0.304, -0.26]","[0.07, 0.393]","[-0.378, -0.136]",177.1964283999987,28.510902620124398,17.59462772012921,14.578551920130849,"[-0.34444444444444444, 0.2916666666666667, 0.1111111111111111, 0.0962962962962963, 0.33425925925925926]","[-0.08518518518518518, 0.25833333333333336, -0.3638888888888889, -0.36666666666666664, -0.030555555555555555]","[1, 1, 1, 1, 1]","[0, 0, 0, 0, 0]","[0, 0, 0, 0, 0]","[14.570326300003217, 17.58668979999493, 21.586613200008287, 24.219802000006894, 28.503243800005293]",0.0071507201209897175,28.510144020125153,['A2'],['B2'],['C3'],['blue'],['yellow'],['salmon'],206.16602889999922,None,6.0,6.530796899998677,206.16602889999922,None,222.84922849999566,None,1.0,6.019806099997368,214.44938489999913,None,7.0,8.164361899995129,228.4172022999992,None,9.0,5.317040499998257,<function functionImportanceBt at 0x00000107EB4AABF8>,<function functionImportanceAt at 0x00000107D8D331E0>,<function functionImportanceCt at 0x00000107EB4AAA60>,247.39849929999036,None,1.0,4.014794600007008,4.0,6.019806099997368,3.0,8.597734199996921,<function functiondiffBt at 0x00000107EC1D1D90>,<function functiondiffAt at 0x00000107EC1D1730>,<function functiondiffCt at 0x00000107EC1D1510>,,,,,,,,,,,,007,001,2022_Jun_14_1248,2leo,2021.2.3,60.00826913608638,
3,40,Plan to see a sports event ,Stimuli/40A1.jpg,Stimuli/40A2.jpg,Stimuli/40A3.jpg,Stimuli/40B1.jpg,Stimuli/40B2.jpg,Stimuli/40B3.jpg,Stimuli/40C1.jpg,Stimuli/40C2.jpg,Stimuli/40C3.jpg,,,,,0,0,0,40,,,,,,,,311.0083042000042,None,311.9968951000046,None,317.99664149999444,None,"[-0.2, 0.346]","[-0.203, -0.347]","[0.399, -0.003]","[-0.378, -0.136]","[0.304, -0.26]","[0.07, 0.393]","[-0.377, 0.138]","[0.066, -0.395]","[0.306, 0.255]",,7.9566478799970355,21.806904879995272,25.974930279990076,"[-0.1787037037037037, 0.12962962962962962, 0.27037037037037037]","[0.30462962962962964, 0.45925925925925926, 0.17962962962962964]","[1, 1, 1]","[0, 0, 0]","[0, 0, 0]","[7.942595000000438, 21.792460500000743, 25.96016669999517]",0.013562879990786314,25.97232357999019,['A1'],['B3'],['C3'],['yellow'],['blue'],['salmon'],345.8123108,None,8.0,5.360081400009221,345.8123108,None,364.29647390000173,None,7.0,4.614260400005151,361.0621203000046,None,10.0,3.315332300000591,351.26233749999665,None,7.0,9.630824500010931,<function functionImportanceC at 0x000001078418BC80>,<function functionImportanceB at 0x000001078418B158>,<function functionImportanceA at 0x00000107EC1D1F28>,,,0.0,4.614260400005151,3.0,4.048564700002316,3.0,7.914887399994768,<function functiondiffB at 0x00000107EC1D1620>,<function functiondiffC at 0x00000107EC1D1598>,<function functiondiffA at 0x00000107EC1D1AE8>,250.51487269999052,None,250.51487269999052,None,319.354849299998,368.84508139999525,None,376.7450225999928,None,383.01163700000325,None,007,001,2022_Jun_14_1248,2leo,2021.2.3,60.00826913608638,
3,3,Plan a movie night with a friend,Stimuli/3A1.jpg,Stimuli/3A2.jpg,Stimuli/3A3.jpg,Stimuli/3B1.jpg,Stimuli/3B2.jpg,Stimuli/3B3.jpg,Stimuli/3C1.jpg,Stimuli/3C2.jpg,Stimuli/3C3.jpg,,,,,0,1,1,3,,,,,,,,386.5779792999965,None,387.57818789999874,None,393.5782435000001,None,"[0.304, -0.26]","[-0.378, -0.136]","[0.07, 0.393]","[0.066, -0.395]","[-0.377, 0.138]","[0.306, 0.255]","[-0.203, -0.347]","[-0.2, 0.346]","[0.399, -0.003]",,18.34436700005608,4.444865400058916,9.411672300062492,"[0.2740740740740741, -0.15092592592592594, 0.31296296296296294]","[0.21481481481481482, -0.32407407407407407, -0.20555555555555555]","[1, 1, 1]","[0, 0, 0]","[0, 0, 0]","[4.441459499998018, 9.408211700007087, 18.34139289999439]",0.002536500061978586,18.34359900005802,['A1'],['B3'],['C1'],['salmon'],['blue'],['yellow'],416.01060389999475,None,9.0,5.262549400009448,416.01060389999475,None,421.34386949999316,None,1.0,6.413886700000148,435.19359349999286,None,10.0,5.631691600006889,429.52907229999255,None,3.0,6.6649027000094065,<function functionImportanceA at 0x00000107E0AE2E18>,<function functionImportanceC at 0x000001078418BAE8>,<function functionImportanceB at 0x00000107EC1D1E18>,,,6.0,6.413886700000148,8.0,3.997771100010141,1.0,5.197030299998005,<function functiondiffB at 0x000001078418B1E0>,<function functiondiffC at 0x000001078418B730>,<function functiondiffA at 0x000001078418B048>,,,,,397.20421050000004,440.47677439999825,None,445.6763454000029,None,451.84316509999917,None,007,001,2022_Jun_14_1248,2leo,2021.2.3,60.00826913608638,
3,26,Plan how to wash one round of your laundry ,Stimuli/26A1.jpg,Stimuli/26A2.jpg,Stimuli/26A3.jpg,Stimuli/26B1.jpg,Stimuli/26B2.jpg,Stimuli/26B3.jpg,Stimuli/26C1.jpg,Stimuli/26C2.jpg,Stimuli/26C3.jpg,,,,,0,2,2,26,,,,,,,,455.3594918000017,None,456.35958770000434,None,462.359580999997,None,"[-0.378, -0.136]","[0.07, 0.393]","[0.304, -0.26]","[-0.2, 0.346]","[0.399, -0.003]","[-0.203, -0.347]","[-0.377, 0.138]","[0.306, 0.255]","[0.066, -0.395]",,7.790906300011557,18.07392150000669,18.841065700005856,"[0.03333333333333333, -0.22407407407407406, -0.3351851851851852]","[0.39166666666666666, 0.3638888888888889, 0.17037037037037037]","[1, 1, 1]","[0, 0, 0]","[0, 0, 0]","[7.785817800002405, 18.06861069999286, 18.835559600003762]",0.004535700005362742,18.839824800001225,['A2'],['B1'],['C1'],['yellow'],['salmon'],['blue'],482.8421510999906,None,2.0,3.9801145999954315,482.8421510999906,None,486.87554510000336,None,0.0,5.9311202000099,496.64189169999736,None,9.0,6.21498019999126,492.8754248999903,None,8.0,3.748252899997169,<function functionImportanceA at 0x000001078418BF28>,<function functionImportanceC at 0x00000107EC1D1840>,<function functionImportanceB at 0x000001078418B840>,,,1.0,5.9311202000099,0.0,5.647605999998632,9.0,8.26456870000402,<function functiondiffA at 0x00000107E91CD9D8>,<function functiondiffB at 0x000001078418B268>,<function functiondiffC at 0x000001078418B9D8>,,,,,463.52190160000464,508.4748660999903,None,516.7578801999916,None,502.80858589999843,None,007,001,2022_Jun_14_1248,2leo,2021.2.3,60.00826913608638,
3,21,Plan your sandwich for lunch,Stimuli/21A1.jpg,Stimuli/21A2.jpg,Stimuli/21A3.jpg,Stimuli/21B1.jpg,Stimuli/21B2.jpg,Stimuli/21B3.jpg,Stimuli/21C1.jpg,Stimuli/21C2.jpg,Stimuli/21C3.jpg,,,,,0,3,3,21,,,,,,,,522.0745713999931,None,523.0746081999969,None,529.0744028999907,None,"[0.07, 0.393]","[0.304, -0.26]","[-0.378, -0.136]","[0.306, 0.255]","[0.066, -0.395]","[-0.377, 0.138]","[0.399, -0.003]","[-0.203, -0.347]","[-0.2, 0.346]",,4.889444080006797,17.03942638001172,16.27263268000388,"[0.32407407407407407, 0.40185185185185185, -0.31851851851851853]","[-0.21388888888888888, -0.000925925925925926, 0.13055555555555556]","[1, 1, 1]","[0, 0, 0]","[0, 0, 0]","[4.885486300001503, 16.268278100003954, 17.035153000004357]",0.003434380007092841,17.03833758001565,['A2'],['B3'],['C1'],['yellow'],['blue'],['salmon'],547.7071064999909,None,6.0,2.9470027000061236,547.7071064999909,None,565.5235985000036,None,10.0,1.7815236000024015,558.2402744999999,None,8.0,7.2481165999925,550.7237496000016,None,7.0,7.514296100009233,<function functionImportanceC at 0x000001078418B950>,<function functionImportanceB at 0x00000107E8778F28>,<function functionImportanceA at 0x00000107EC1D1488>,,,6.0,1.7815236000024015,-0.0,3.06457170000067,2.0,4.514661099994555,<function functiondiffC at 0x0000010780083730>,<function functiondiffB at 0x000001078418B0D0>,<function functiondiffA at 0x000001078418BB70>,,,,,530.1875290000025,571.3067370999925,None,567.273486399994,None,575.823283699996,None,007,001,2022_Jun_14_1248,2leo,2021.2.3,60.00826913608638,
3,7,Plan your Sunday breakfast ,Stimuli/7A1.jpg,Stimuli/7A2.jpg,Stimuli/7A3.jpg,Stimuli/7B1.jpg,Stimuli/7B2.jpg,Stimuli/7B3.jpg,Stimuli/7C1.jpg,Stimuli/7C2.jpg,Stimuli/7C3.jpg,,,,,0,4,4,7,,,,,,,,578.423166099994,None,579.4229206000018,None,585.4229727999918,None,"[0.306, 0.255]","[0.066, -0.395]","[-0.377, 0.138]","[0.399, -0.003]","[-0.203, -0.347]","[-0.2, 0.346]","[0.07, 0.393]","[0.304, -0.26]","[-0.378, -0.136]",,6.896048920127214,15.563055820122827,19.263053320115432,"[-0.3435185185185185, -0.1675925925925926, -0.3537037037037037]","[0.09259259259259259, 0.3212962962962963, -0.06111111111111111]","[1, 1, 1]","[0, 0, 0]","[0, 0, 0]","[6.887987299996894, 15.554749299990362, 19.25446659998852]",0.007472420125850476,19.261858620127896,['A3'],['B3'],['C3'],['salmon'],['blue'],['yellow'],611.1719984999945,None,4.0,6.830562400005874,611.1719984999945,None,619.8383437000011,None,10.0,8.981197899993276,628.9384381999989,None,8.0,5.998308200010797,634.3049202999973,None,4.0,4.9152587999997195,<function functionImportanceA at 0x00000107EB368EA0>,<function functionImportanceB at 0x00000107800831E0>,<function functionImportanceC at 0x0000010780083158>,,,9.0,8.981197899993276,4.0,5.347482500001206,5.0,4.364304200003971,<function functiondiffA at 0x000001078418BEA0>,<function functiondiffC at 0x00000107800830D0>,<function functiondiffB at 0x000001078418BD90>,,,,,591.453465300001,647.2048122999986,None,643.7211132999946,None,638.5047194999934,None,007,001,2022_Jun_14_1248,2leo,2021.2.3,60.00826913608638,
3,17,Plan a day in Barcelona with a friend who is new to the city,Stimuli/17A1.jpg,Stimuli/17A2.jpg,Stimuli/17A3.jpg,Stimuli/17B1.jpg,Stimuli/17B2.jpg,Stimuli/17B3.jpg,Stimuli/17C1.jpg,Stimuli/17C2.jpg,Stimuli/17C3.jpg,,,,,0,5,5,17,,,,,,,,650.404699199993,None,651.4044389999908,None,657.4046035999927,None,"[-0.377, 0.138]","[0.306, 0.255]","[0.066, -0.395]","[-0.2, 0.346]","[0.399, -0.003]","[-0.203, -0.347]","[-0.378, -0.136]","[0.07, 0.393]","[0.304, -0.26]",,13.107449980001547,3.5574789800011786,10.424569380003959,"[0.4074074074074074, 0.1111111111111111, 0.13148148148148148]","[-0.005555555555555556, 0.41944444444444445, -0.3814814814814815]","[1, 1, 1]","[0, 0, 0]","[0, 0, 0]","[3.5521265999996103, 10.418970300001092, 13.1022718000022]",0.0045860800018999726,13.106402280012844,['A3'],['B2'],['C2'],['blue'],['yellow'],['salmon'],672.1871509000048,None,9.0,3.8303266000002623,672.1871509000048,None,680.887051800004,None,7.0,4.298112100004801,676.1372953999962,None,10.0,4.69807949999813,685.1536752999964,None,2.0,4.048430700000608,<function functionImportanceB at 0x0000010780083048>,<function functionImportanceA at 0x00000107800839D8>,<function functionImportanceC at 0x0000010780083378>,,,6.0,4.298112100004801,8.0,4.514796999996179,0.0,3.1476208999956725,<function functiondiffB at 0x000001078418BBF8>,<function functiondiffC at 0x000001078418BD08>,<function functiondiffA at 0x000001078418B8C8>,,,,,658.6008107999951,689.153519799991,None,692.3036539000022,None,696.4864422999963,None,007,001,2022_Jun_14_1248,2leo,2021.2.3,60.00826913608638,
3,5,Plan a birthday party for your younger self when you turn eight,Stimuli/5A1.jpg,Stimuli/5A2.jpg,Stimuli/5A3.jpg,Stimuli/5B1.jpg,Stimuli/5B2.jpg,Stimuli/5B3.jpg,Stimuli/5C1.jpg,Stimuli/5C2.jpg,Stimuli/5C3.jpg,,,,,0,6,6,5,,,,,,,,700.5199432999943,None,701.5197931000002,None,707.5198887000006,None,"[-0.378, -0.136]","[0.07, 0.393]","[0.304, -0.26]","[-0.2, 0.346]","[0.399, -0.003]","[-0.203, -0.347]","[-0.377, 0.138]","[0.306, 0.255]","[0.066, -0.395]",,39.87027324009978,11.221406440105056,28.604267040092964,"[0.44074074074074077, -0.3907407407407407, -0.3509259259259259]","[-0.008333333333333333, 0.1675925925925926, -0.11481481481481481]","[1, 1, 1]","[0, 0, 0]","[0, 0, 0]","[11.209865199998603, 28.592604999998002, 39.859155900005135]",0.010667840091628022,39.86964584009547,['A1'],['B2'],['C1'],['salmon'],['yellow'],['blue'],753.6683446999959,None,1.0,4.146311799995601,753.6683446999959,None,772.2868968999974,None,7.0,8.331122699994012,759.3544743999955,None,0.0,7.01448120000714,765.5346989999962,None,2.0,4.815572499996051,<function functionImportanceB at 0x0000010780083AE8>,<function functionImportanceC at 0x0000010780083D90>,<function functionImportanceA at 0x00000107EC1D19D8>,,,7.0,8.331122699994012,9.0,3.1648362999985693,3.0,7.447304000001168,<function functiondiffB at 0x0000010780083510>,<function functiondiffC at 0x000001078418B488>,<function functiondiffA at 0x0000010780083840>,,,,,713.3474946999922,778.401269199996,None,785.6675047000026,None,790.0674153,None,007,001,2022_Jun_14_1248,2leo,2021.2.3,60.00826913608638,
3,31,Plan your order at a restaurant    ,Stimuli/31A1.jpg,Stimuli/31A2.jpg,Stimuli/31A3.jpg,Stimuli/31B1.jpg,Stimuli/31B2.jpg,Stimuli/31B3.jpg,Stimuli/31C1.jpg,Stimuli/31C2.jpg,Stimuli/31C3.jpg,,,,,0,7,7,31,,,,,,,,792.0008169999928,None,793.000795999993,None,799.0007248000038,None,"[-0.2, 0.346]","[0.399, -0.003]","[-0.203, -0.347]","[-0.377, 0.138]","[0.306, 0.255]","[0.066, -0.395]","[-0.378, -0.136]","[0.07, 0.393]","[0.304, -0.26]",,3.791476420039544,14.641750920040067,15.441828820039518,"[-0.13518518518518519, 0.26851851851851855, 0.07592592592592592]","[0.33240740740740743, 0.27870370370370373, 0.33055555555555555]","[1, 1, 1]","[0, 0, 0]","[0, 0, 0]","[3.7784344000101555, 14.628367700002855, 15.428186100005405]",0.012615320039913058,15.440484820035635,['A1'],['B2'],['C2'],['yellow'],['salmon'],['blue'],817.5498452000029,None,8.0,4.096809199996642,817.5498452000029,None,829.5998301999934,None,10.0,4.098864300001878,821.766684000002,None,10.0,6.347628300005454,832.249771200004,None,7.0,2.9648784000019077,<function functionImportanceB at 0x00000107800837B8>,<function functionImportanceA at 0x00000107EB4AA9D8>,<function functionImportanceC at 0x0000010780083C80>,,,4.0,4.098864300001878,0.0,2.2313827000034507,4.0,5.380967299992335,<function functiondiffB at 0x0000010780083950>,<function functiondiffC at 0x0000010780083A60>,<function functiondiffA at 0x0000010780083488>,,,,,801.6566002000036,835.1497780999925,None,840.5494408999948,None,846.1327709000034,None,007,001,2022_Jun_14_1248,2leo,2021.2.3,60.00826913608638,
3,1,Plan how to study for an exam,Stimuli/1A1.jpg,Stimuli/1A2.jpg,Stimuli/1A3.jpg,Stimuli/1B1.jpg,Stimuli/1B2.jpg,Stimuli/1B3.jpg,Stimuli/1C1.jpg,Stimuli/1C2.jpg,Stimuli/1C3.jpg,,,,,0,8,8,1,,,,,,,,847.5493390000047,None,848.5494044999941,None,854.5492690999963,None,"[0.07, 0.393]","[0.304, -0.26]","[-0.378, -0.136]","[0.306, 0.255]","[0.066, -0.395]","[-0.377, 0.138]","[0.399, -0.003]","[-0.203, -0.347]","[-0.2, 0.346]",,13.361943540003267,11.395635140012018,5.479083240003092,"[0.44537037037037036, -0.3296296296296296, 0.30925925925925923]","[-0.014814814814814815, 0.09074074074074075, -0.27037037037037037]","[1, 1, 1]","[0, 0, 0]","[0, 0, 0]","[5.47168290000991, 11.388283899999806, 13.354933399998117]",0.006450940010836348,13.361279440010549,['A2'],['B3'],['C1'],['blue'],['yellow'],['salmon'],869.4819980000029,None,10.0,4.580373699995107,869.4819980000029,None,885.5650495000009,None,10.0,2.298515500006033,879.6484159999964,None,6.0,5.865117400011513,874.0819765999913,None,8.0,5.497711800009711,<function functionImportanceC at 0x0000010780083BF8>,<function functionImportanceB at 0x000001078418B378>,<function functionImportanceA at 0x000001078418B6A8>,,,5.0,2.298515500006033,0.0,4.165050399999018,1.0,8.480222000012873,<function functiondiffC at 0x0000010780083620>,<function functiondiffA at 0x00000107EC1D1A60>,<function functiondiffB at 0x00000107EC1D16A8>,,,,,855.6433948999911,897.7479696999944,None,887.7982391999976,None,893.564824000001,None,007,001,2022_Jun_14_1248,2leo,2021.2.3,60.00826913608638,
3,41,Plan how you want to have dinner tonight ,Stimuli/41A1.jpg,Stimuli/41A2.jpg,Stimuli/41A3.jpg,Stimuli/41B1.jpg,Stimuli/41B2.jpg,Stimuli/41B3.jpg,Stimuli/41C1.jpg,Stimuli/41C2.jpg,Stimuli/41C3.jpg,,,,,0,9,9,41,,,,,,,,905.7478128999937,None,906.7477590999915,None,912.7476358999993,None,"[0.306, 0.255]","[0.066, -0.395]","[-0.377, 0.138]","[0.07, 0.393]","[0.304, -0.26]","[-0.378, -0.136]","[0.399, -0.003]","[-0.203, -0.347]","[-0.2, 0.346]",,15.486327400009031,16.769844100010232,9.003289300017059,"[0.3537037037037037, -0.4203703703703704, -0.3962962962962963]","[0.06296296296296296, 0.09907407407407408, -0.11018518518518519]","[1, 1, 1]","[0, 0, 0]","[0, 0, 0]","[8.990887000007206, 15.47423730000446, 16.75749899999937]",0.01149370001803618,16.768854900015867,['A3'],['B3'],['C1'],['yellow'],['salmon'],['blue'],931.3138321000006,None,7.0,4.213725000008708,931.3138321000006,None,935.6135183000006,None,10.0,4.7643227000080515,940.3803669999907,None,6.0,6.931738600003882,947.496828000003,None,0.0,7.781205999999656,<function functionImportanceA at 0x0000010780083598>,<function functionImportanceB at 0x0000010780083268>,<function functionImportanceC at 0x000001078418BA60>,,,3.0,4.7643227000080515,0.0,4.347988699999405,0.0,5.631139300006907,<function functiondiffA at 0x00000107800832F0>,<function functiondiffC at 0x00000107806AB1E0>,<function functiondiffB at 0x0000010780083E18>,,,,,914.0714664999978,965.8127641000028,None,959.4962134999951,None,955.0963597999944,None,007,001,2022_Jun_14_1248,2leo,2021.2.3,60.00826913608638,
3,23,Plan a city trip,Stimuli/23A1.jpg,Stimuli/23A2.jpg,Stimuli/23A3.jpg,Stimuli/23B1.jpg,Stimuli/23B2.jpg,Stimuli/23B3.jpg,Stimuli/23C1.jpg,Stimuli/23C2.jpg,Stimuli/23C3.jpg,,,,,0,10,10,23,,,,,,,,970.9626481000014,None,971.9625872000033,None,977.962746899997,None,"[0.066, -0.395]","[-0.377, 0.138]","[0.306, 0.255]","[-0.203, -0.347]","[-0.2, 0.346]","[0.399, -0.003]","[0.304, -0.26]","[-0.378, -0.136]","[0.07, 0.393]",,17.812525260000257,20.27982635999797,12.096718760003569,"[0.32685185185185184, -0.31851851851851853, 0.43148148148148147]","[-0.225, 0.07592592592592592, 0.02962962962962963]","[1, 1, 1]","[0, 0, 0]","[0, 0, 0]","[12.088536000010208, 17.80477930000052, 20.27174240000022]",0.007248459995025769,20.27865526000096,['A2'],['B3'],['C1'],['blue'],['salmon'],['yellow'],999.8618461000005,None,7.0,2.547385800004122,999.8618461000005,None,1012.4115358999989,None,7.0,3.6317275000037625,1016.0784452999942,None,9.0,4.231936800002586,1002.5119864000008,None,2.0,9.931179400009569,<function functionImportanceC at 0x00000107806AB400>,<function functionImportanceA at 0x00000107800838C8>,<function functionImportanceB at 0x00000107806ABAE8>,,,0.0,3.6317275000037625,3.0,3.7144435999944108,4.0,6.64782159999595,<function functiondiffB at 0x0000010780083F28>,<function functiondiffC at 0x000001078418B7B8>,<function functiondiffA at 0x0000010780083B70>,,,,,979.105058400004,1020.2949212999956,None,1026.961441899999,None,1029.861190399999,None,007,001,2022_Jun_14_1248,2leo,2021.2.3,60.00826913608638,
3,22,Plan a beach day with your friends,Stimuli/22A1.jpg,Stimuli/22A2.jpg,Stimuli/22A3.jpg,Stimuli/22B1.jpg,Stimuli/22B2.jpg,Stimuli/22B3.jpg,Stimuli/22C1.jpg,Stimuli/22C2.jpg,Stimuli/22C3.jpg,,,,,0,11,11,22,,,,,,,,1033.0942780000041,None,1034.0945492000028,None,1040.0944833999965,None,"[-0.203, -0.347]","[0.399, -0.003]","[-0.2, 0.346]","[0.304, -0.26]","[0.07, 0.393]","[-0.378, -0.136]","[0.066, -0.395]","[0.306, 0.255]","[-0.377, 0.138]",,20.331301600002917,14.86483550000412,8.515447199999471,"[0.35833333333333334, 0.3435185185185185, -0.2518518518518518]","[0.22592592592592592, -0.30277777777777776, -0.30185185185185187]","[1, 1, 1]","[0, 0, 0]","[0, 0, 0]","[8.506236599991098, 14.855931799989776, 20.32267939999292]",0.008202700002584606,20.33060500001011,['A1'],['B1'],['C2'],['yellow'],['salmon'],['blue'],1062.0601316999964,None,4.0,4.54686989999027,1062.0601316999964,None,1070.2434814000007,None,1.0,2.881848799996078,1073.1267453000037,None,4.0,6.165103999999701,1066.6935565000022,None,10.0,3.547989200000302,<function functionImportanceC at 0x00000107806AB598>,<function functionImportanceA at 0x00000107806AB488>,<function functionImportanceB at 0x00000107806AB2F0>,,,0.0,2.881848799996078,0.0,5.047860899998341,4.0,4.764562700001989,<function functiondiffA at 0x000001078418B598>,<function functiondiffC at 0x0000010780083D08>,<function functiondiffB at 0x0000010780083EA0>,,,,,1041.2520011000015,1087.3598495000042,None,1084.359732900004,None,1079.2766525999905,None,007,001,2022_Jun_14_1248,2leo,2021.2.3,60.00826913608638,
3,43,Plan your dream house,Stimuli/43A1.jpg,Stimuli/43A2.jpg,Stimuli/43A3.jpg,Stimuli/43B1.jpg,Stimuli/43B2.jpg,Stimuli/43B3.jpg,Stimuli/43C1.jpg,Stimuli/43C2.jpg,Stimuli/43C3.jpg,,,,,0,12,12,43,,,,,,,,1091.6429623000004,None,1092.642820299996,None,1098.642937800003,None,"[-0.2, 0.346]","[-0.203, -0.347]","[0.399, -0.003]","[-0.377, 0.138]","[0.066, -0.395]","[0.306, 0.255]","[-0.378, -0.136]","[0.304, -0.26]","[0.07, 0.393]",,17.434359600010794,21.234361400012858,30.034318100006203,"[0.42407407407407405, 0.35648148148148145, 0.12407407407407407]","[0.046296296296296294, 0.2462962962962963, 0.4027777777777778]","[1, 1, 1]","[0, 0, 0]","[0, 0, 0]","[17.42409110000881, 21.22386060000281, 30.02355749999697]",0.009678600006736815,30.033095400009188,['A3'],['B3'],['C3'],['yellow'],['blue'],['salmon'],1130.308444299997,None,1.0,2.9801250000018626,1130.308444299997,None,1139.7418455000006,None,3.0,5.848236400008318,1145.5745782000013,None,1.0,2.1151774999889312,1133.341933100004,None,9.0,6.347713399998611,<function functionImportanceC at 0x00000107806AB510>,<function functionImportanceA at 0x00000107806AB378>,<function functionImportanceB at 0x00000107806AB7B8>,,,10.0,5.848236400008318,7.0,4.631009699995047,0.0,2.1144248000055086,<function functiondiffA at 0x00000107806AB950>,<function functiondiffB at 0x00000107806AB620>,<function functiondiffC at 0x000001078418BE18>,,,,,1099.7991541999945,1152.3414057999908,None,1154.4746614000032,None,1147.691603500003,None,007,001,2022_Jun_14_1248,2leo,2021.2.3,60.00826913608638,
3,10,Plan a restaurant visit with your family on the weekend ,Stimuli/10A1.jpg,Stimuli/10A2.jpg,Stimuli/10A3.jpg,Stimuli/10B1.jpg,Stimuli/10B2.jpg,Stimuli/10B3.jpg,Stimuli/10C1.jpg,Stimuli/10C2.jpg,Stimuli/10C3.jpg,,,,,0,13,13,10,,,,,,,,1157.907744600001,None,1158.907953899994,None,1164.907823799993,None,"[0.304, -0.26]","[-0.378, -0.136]","[0.07, 0.393]","[-0.203, -0.347]","[-0.2, 0.346]","[0.399, -0.003]","[0.066, -0.395]","[-0.377, 0.138]","[0.306, 0.255]",,21.367782560060732,9.018220960060717,2.268875360066886,"[-0.45925925925925926, -0.22592592592592592, 0.046296296296296294]","[0.12685185185185185, 0.3490740740740741, 0.3638888888888889]","[1, 1, 1]","[0, 0, 0]","[0, 0, 0]","[2.2520255999988876, 9.001559000011184, 21.351347700008773]",0.01585576006618794,21.36700936006673,['A3'],['B2'],['C2'],['blue'],['yellow'],['salmon'],1190.6567901999952,None,8.0,4.73049390000233,1190.6567901999952,None,1199.3073125999945,None,8.0,4.765157600006205,1206.7399749000033,None,8.0,13.048645200004103,1195.4399491999939,None,10.0,3.7311891999997897,<function functionImportanceC at 0x00000107806AB048>,<function functionImportanceA at 0x00000107806AB0D0>,<function functionImportanceB at 0x00000107806AB158>,,,-0.0,4.765157600006205,0.0,3.547487399991951,2.0,8.03110390000802,<function functiondiffB at 0x00000107806ABB70>,<function functiondiffA at 0x00000107806AB268>,<function functiondiffC at 0x00000107806ABD08>,,,,,1168.8358758999966,1217.8063833999913,None,1228.6393955999956,None,1225.0895653000043,None,007,001,2022_Jun_14_1248,2leo,2021.2.3,60.00826913608638,
3,4,Plan a game night at your place,Stimuli/4A1.jpg,Stimuli/4A2.jpg,Stimuli/4A3.jpg,Stimuli/4B1.jpg,Stimuli/4B2.jpg,Stimuli/4B3.jpg,Stimuli/4C1.jpg,Stimuli/4C2.jpg,Stimuli/4C3.jpg,,,,,0,14,14,4,,,,,,,,1230.5891312000022,None,1231.5894030999916,None,1237.5894559000008,None,"[-0.2, 0.346]","[0.399, -0.003]","[-0.203, -0.347]","[-0.378, -0.136]","[0.07, 0.393]","[0.304, -0.26]","[-0.377, 0.138]","[0.306, 0.255]","[0.066, -0.395]",,15.516759020058089,17.000450820065453,10.717335120061762,"[0.11203703703703703, -0.125, 0.34629629629629627]","[-0.3574074074074074, 0.3527777777777778, -0.21296296296296297]","[1, 1, 1]","[0, 0, 0]","[0, 0, 0]","[10.703078300008201, 15.503254100010963, 16.986497600009898]",0.012967320057214238,16.999301320058294,['A1'],['B3'],['C3'],['salmon'],['blue'],['yellow'],1258.5383747000014,None,10.0,3.3802041999879293,1258.5383747000014,None,1262.9714662999904,None,1.0,4.580762999990839,1272.5548696000042,None,10.0,1.9149184999987483,1267.8716363999993,None,8.0,5.8982913000072585,<function functionImportanceA at 0x0000010780083400>,<function functionImportanceC at 0x0000010780BDB268>,<function functionImportanceB at 0x00000107806ABC80>,,,7.0,4.580762999990839,2.0,4.26473920000717,0.0,3.563920300002792,<function functiondiffB at 0x00000107806ABD90>,<function functiondiffA at 0x00000107806ABEA0>,<function functiondiffC at 0x00000107806AB840>,,,,,1241.0854564000037,1274.4048752999952,None,1282.6379654000048,None,1278.3068107,None,007,001,2022_Jun_14_1248,2leo,2021.2.3,60.00826913608638,
3,13,Plan a romantic date this weekend,Stimuli/13A1.jpg,Stimuli/13A2.jpg,Stimuli/13A3.jpg,Stimuli/13B1.jpg,Stimuli/13B2.jpg,Stimuli/13B3.jpg,Stimuli/13C1.jpg,Stimuli/13C2.jpg,Stimuli/13C3.jpg,,,,,0,15,15,13,,,,,,,,1324.5706438999914,None,1325.5700710999954,None,1331.5700387999968,None,"[-0.2, 0.346]","[-0.203, -0.347]","[0.399, -0.003]","[-0.378, -0.136]","[0.304, -0.26]","[0.07, 0.393]","[-0.377, 0.138]","[0.066, -0.395]","[0.306, 0.255]",,22.827275720002945,17.19246002,7.176427319995128,"[0.27870370370370373, -0.3351851851851852, -0.1712962962962963]","[0.21574074074074073, -0.10555555555555556, -0.29444444444444445]","[1, 1, 1]","[0, 0, 0]","[0, 0, 0]","[7.169837000008556, 17.186269400001038, 22.8205125000095]",0.00551221999921836,22.825094920000993,['A2'],['B1'],['C3'],['yellow'],['blue'],['salmon'],1356.1191431000043,None,3.0,3.4599043000052916,1356.1191431000043,None,1368.102444899996,None,1.0,3.5483509999903617,1363.3025707999914,None,7.0,4.798305499993148,1359.6692971000011,None,9.0,3.597454899994773,<function functionImportanceC at 0x0000010780BDB6A8>,<function functionImportanceB at 0x0000010780BDBEA0>,<function functionImportanceA at 0x00000107800836A8>,,,-0.0,3.5483509999903617,7.0,4.1647678000008455,7.0,5.081136600012542,<function functiondiffB at 0x0000010780BDB8C8>,<function functiondiffC at 0x0000010780BDB510>,<function functiondiffA at 0x0000010780BDB048>,,,,,1332.7824956999975,1371.6190823999932,None,1376.7020936000044,None,1380.0687985999975,None,007,001,2022_Jun_14_1248,2leo,2021.2.3,60.00826913608638,
3,28,Plan a one-week camping trip in Spain,Stimuli/28A1.jpg,Stimuli/28A2.jpg,Stimuli/28A3.jpg,Stimuli/28B1.jpg,Stimuli/28B2.jpg,Stimuli/28B3.jpg,Stimuli/28C1.jpg,Stimuli/28C2.jpg,Stimuli/28C3.jpg,,,,,0,16,16,28,,,,,,,,1383.7517416000046,None,1384.7519771999941,None,1390.7518510999944,None,"[-0.203, -0.347]","[0.399, -0.003]","[-0.2, 0.346]","[0.066, -0.395]","[0.306, 0.255]","[-0.377, 0.138]","[0.304, -0.26]","[0.07, 0.393]","[-0.378, -0.136]",,16.7289664800046,29.37961358000757,35.395593280001776,"[-0.1537037037037037, 0.35648148148148145, 0.10648148148148148]","[-0.28703703703703703, 0.2657407407407407, 0.33055555555555555]","[1, 1, 1]","[0, 0, 0]","[0, 0, 0]","[16.713352100006887, 29.363664999997127, 35.379400200006785]",0.015170280006714165,35.394430780012044,['A1'],['B2'],['C2'],['blue'],['salmon'],['yellow'],1427.7173540999938,None,7.0,5.297370599990245,1427.7173540999938,None,1449.816917499993,None,7.0,3.981620600010501,1433.083903199993,None,9.0,9.531519300013315,1442.6170944000041,None,1.0,7.1653831000003265,<function functionImportanceB at 0x0000010780BDB400>,<function functionImportanceC at 0x0000010780BDBC80>,<function functionImportanceA at 0x0000010780BDB598>,,,1.0,3.981620600010501,8.0,7.0979305999935605,9.0,3.698333400010597,<function functiondiffC at 0x00000107806AB8C8>,<function functiondiffA at 0x0000010780BDB620>,<function functiondiffB at 0x00000107806AB730>,,,,,1391.8527352999954,1465.0329746999923,None,1453.7831731000042,None,1457.9163788000005,None,007,001,2022_Jun_14_1248,2leo,2021.2.3,60.00826913608638,
3,9,Plan a picnic with friends,Stimuli/9A1.jpg,Stimuli/9A2.jpg,Stimuli/9A3.jpg,Stimuli/9B1.jpg,Stimuli/9B2.jpg,Stimuli/9B3.jpg,Stimuli/9C1.jpg,Stimuli/9C2.jpg,Stimuli/9C3.jpg,,,,,0,17,17,9,,,,,,,,1468.2496447000012,None,1469.2498277999985,None,1475.2497846000042,None,"[0.066, -0.395]","[-0.377, 0.138]","[0.306, 0.255]","[0.304, -0.26]","[-0.378, -0.136]","[0.07, 0.393]","[-0.203, -0.347]","[-0.2, 0.346]","[0.399, -0.003]",,10.129941660095938,25.02980616010609,18.146962960105157,"[0.020370370370370372, -0.18796296296296297, 0.3175925925925926]","[-0.3768518518518518, -0.30925925925925923, -0.2601851851851852]","[1, 1, 1]","[0, 0, 0]","[0, 0, 0]","[10.116824600001564, 18.133207099992433, 25.016366700001527]",0.012659160100156441,25.02890406010556,['A1'],['B1'],['C1'],['yellow'],['salmon'],['blue'],1506.0986724999966,None,3.0,5.679929999998421,1506.0986724999966,None,1529.7481551999954,None,7.0,4.314946400001645,1513.1319612999941,None,3.0,10.080741800004034,1523.4146276999963,None,4.0,6.298572699990473,<function functionImportanceB at 0x0000010780BDB950>,<function functionImportanceC at 0x00000107806AB6A8>,<function functionImportanceA at 0x0000010780BDB2F0>,,,8.0,4.314946400001645,1.0,7.6641299000039,6.0,4.846860799996648,<function functiondiffB at 0x0000010780BDB730>,<function functiondiffC at 0x0000010780BDBD08>,<function functiondiffA at 0x00000107806ABBF8>,,,,,1480.616304199997,1532.9332498000003,None,1537.8813463999977,None,1542.1813027000026,None,007,001,2022_Jun_14_1248,2leo,2021.2.3,60.00826913608638,
3,18,Plan your Saturday night ,Stimuli/18A1.jpg,Stimuli/18A2.jpg,Stimuli/18A3.jpg,Stimuli/18B1.jpg,Stimuli/18B2.jpg,Stimuli/18B3.jpg,Stimuli/18C1.jpg,Stimuli/18C2.jpg,Stimuli/18C3.jpg,,,,,0,18,18,18,,,,,,,,1548.8973876999953,None,1549.8976785999985,None,1555.8974434999982,None,"[-0.378, -0.136]","[0.304, -0.26]","[0.07, 0.393]","[-0.377, 0.138]","[0.066, -0.395]","[0.306, 0.255]","[-0.2, 0.346]","[-0.203, -0.347]","[0.399, -0.003]",,4.541415860003326,10.64144225999189,15.307933160001994,"[0.28055555555555556, -0.31666666666666665, -0.14814814814814814]","[-0.22962962962962963, 0.10740740740740741, 0.37037037037037035]","[1, 1, 1]","[0, 0, 0]","[0, 0, 0]","[4.527909700002056, 10.62773950000701, 15.294005300005665]",0.012974259996553883,15.30685005999112,['A2'],['B1'],['C1'],['blue'],['yellow'],['salmon'],1572.8134965999925,None,8.0,2.730255100002978,1572.8134965999925,None,1575.646955499993,None,7.0,8.180821199988713,1586.0967022999976,None,9.0,3.1319613000086974,1583.8632122999988,None,0.0,2.265223300011712,<function functionImportanceA at 0x00000107806ABA60>,<function functionImportanceC at 0x0000010781222048>,<function functionImportanceB at 0x00000107806AB9D8>,,,0.0,8.180821199988713,4.0,3.3813452000031248,0.0,2.4811315999977523,<function functiondiffC at 0x0000010781222950>,<function functiondiffA at 0x0000010780BDBD90>,<function functiondiffB at 0x0000010780BDBBF8>,,,,,1557.0360302000045,1596.7130393999978,None,1589.213445699992,None,1593.3298198999983,None,007,001,2022_Jun_14_1248,2leo,2021.2.3,60.00826913608638,
3,2,Plan which ingredients you want to use for cooking dinner today,Stimuli/2A1.jpg,Stimuli/2A2.jpg,Stimuli/2A3.jpg,Stimuli/2B1.jpg,Stimuli/2B2.jpg,Stimuli/2B3.jpg,Stimuli/2C1.jpg,Stimuli/2C2.jpg,Stimuli/2C3.jpg,,,,,0,19,19,2,,,,,,,,1598.7294265999953,None,1599.7295309000037,None,1605.7294418999954,None,"[0.066, -0.395]","[0.306, 0.255]","[-0.377, 0.138]","[-0.203, -0.347]","[0.399, -0.003]","[-0.2, 0.346]","[0.304, -0.26]","[0.07, 0.393]","[-0.378, -0.136]",,34.68997126010072,38.14049806010735,28.77395046010497,"[-0.3509259259259259, -0.36018518518518516, -0.2175925925925926]","[-0.06759259259259259, 0.07685185185185185, 0.29074074074074074]","[1, 1, 1]","[0, 0, 0]","[0, 0, 0]","[28.75963010000123, 34.67613770000753, 38.12644510000246]",0.013144160096999258,38.13919276010711,['A3'],['B3'],['C3'],['blue'],['salmon'],['yellow'],1650.361357200003,None,7.0,3.796979000006104,1650.361357200003,None,1665.7110901999986,None,4.0,6.2483904999971855,1657.478194700001,None,7.0,10.397682599999825,1671.5109783999942,None,10.0,3.315089600000647,<function functionImportanceB at 0x00000107812222F0>,<function functionImportanceA at 0x00000107812226A8>,<function functionImportanceC at 0x00000107812228C8>,,,0.0,6.2483904999971855,2.0,3.0644925000087824,4.0,7.181041699994239,<function functiondiffB at 0x0000010780BDBF28>,<function functiondiffA at 0x00000107806ABE18>,<function functiondiffC at 0x0000010780BDB840>,,,,,1611.7680792000028,1675.0109246999928,None,1684.660617200003,None,1681.7274422000046,None,007,001,2022_Jun_14_1248,2leo,2021.2.3,60.00826913608638,
3,37,Plan your cleaning routine ,Stimuli/37A1.jpg,Stimuli/37A2.jpg,Stimuli/37A3.jpg,Stimuli/37B1.jpg,Stimuli/37B2.jpg,Stimuli/37B3.jpg,Stimuli/37C1.jpg,Stimuli/37C2.jpg,Stimuli/37C3.jpg,,,,,0,20,20,37,,,,,,,,1685.8105057999928,None,1686.8107639999944,None,1692.8105192999938,None,"[-0.203, -0.347]","[0.399, -0.003]","[-0.2, 0.346]","[0.304, -0.26]","[0.07, 0.393]","[-0.378, -0.136]","[0.066, -0.395]","[0.306, 0.255]","[-0.377, 0.138]",,5.043247360008536,9.14339726002072,15.09361516001809,"[0.38425925925925924, -0.31666666666666665, 0.2935185185185185]","[0.041666666666666664, -0.14444444444444443, 0.3138888888888889]","[1, 1, 1]","[0, 0, 0]","[0, 0, 0]","[5.036906699999236, 9.136732400002074, 15.086760699996375]",0.0056734600075287744,15.092376260014134,['A2'],['B3'],['C2'],['yellow'],['blue'],['salmon'],1709.5264641999966,None,9.0,3.4635373999917647,1709.5264641999966,None,1726.9428771999956,None,10.0,2.7152396999881603,1713.1433745999966,None,6.0,7.614389199996367,1720.6929602000018,None,6.0,6.19857750000665,<function functionImportanceB at 0x0000010781222378>,<function functionImportanceC at 0x0000010781222620>,<function functionImportanceA at 0x0000010781222268>,,,3.0,2.7152396999881603,0.0,2.181489499998861,6.0,4.081586400003289,<function functiondiffC at 0x0000010781222488>,<function functiondiffA at 0x0000010781222D90>,<function functiondiffB at 0x0000010781222598>,,,,,1693.9556360999995,1736.125977299991,None,1729.6093072999938,None,1733.9258564000047,None,007,001,2022_Jun_14_1248,2leo,2021.2.3,60.00826913608638,
3,35,Plan how you want to do your grocery shopping ,Stimuli/35A1.jpg,Stimuli/35A2.jpg,Stimuli/35A3.jpg,Stimuli/35B1.jpg,Stimuli/35B2.jpg,Stimuli/35B3.jpg,Stimuli/35C1.jpg,Stimuli/35C2.jpg,Stimuli/35C3.jpg,,,,,0,21,21,35,,,,,,,,1739.725794500002,None,1740.7258463000035,None,1746.7258691000025,None,"[-0.377, 0.138]","[0.306, 0.255]","[0.066, -0.395]","[-0.2, 0.346]","[0.399, -0.003]","[-0.203, -0.347]","[-0.378, -0.136]","[0.07, 0.393]","[0.304, -0.26]",,16.169465180006227,32.40251718000218,7.92012517999683,"[0.29814814814814816, 0.11666666666666667, -0.18518518518518517]","[-0.2351851851851852, -0.3453703703703704, 0.31203703703703706]","[1, 1, 1]","[0, 0, 0]","[0, 0, 0]","[7.916468800001894, 16.166325900005177, 32.399212400006945]",0.00255888000538107,32.401731980004115,['A3'],['B1'],['C3'],['blue'],['yellow'],['salmon'],1780.8079109999962,None,2.0,6.963375100007397,1780.8079109999962,None,1787.8576993000024,None,9.0,5.997850899992045,1797.6078489999927,None,10.0,2.548626100004185,1793.8411554999911,None,1.0,3.665113499999279,<function functionImportanceA at 0x0000010780BDB158>,<function functionImportanceC at 0x0000010780BDB9D8>,<function functionImportanceB at 0x0000010780BDBE18>,,,0.0,5.997850899992045,2.0,3.814402100004372,10.0,2.4984948999917833,<function functiondiffA at 0x00000107812221E0>,<function functiondiffC at 0x0000010781222AE8>,<function functiondiffB at 0x00000107812227B8>,,,,,1747.9251009,1806.2908522999933,None,1803.907520199995,None,1800.074330000003,None,007,001,2022_Jun_14_1248,2leo,2021.2.3,60.00826913608638,
3,29,Plan a day in the mountains ,Stimuli/29A1.jpg,Stimuli/29A2.jpg,Stimuli/29A3.jpg,Stimuli/29B1.jpg,Stimuli/29B2.jpg,Stimuli/29B3.jpg,Stimuli/29C1.jpg,Stimuli/29C2.jpg,Stimuli/29C3.jpg,,,,,0,22,22,29,,,,,,,,1808.290516299996,None,1809.2907321999955,None,1815.2905973000015,None,"[0.066, -0.395]","[0.306, 0.255]","[-0.377, 0.138]","[0.304, -0.26]","[0.07, 0.393]","[-0.378, -0.136]","[-0.203, -0.347]","[0.399, -0.003]","[-0.2, 0.346]",,4.6993532400083495,9.432517440000083,20.282645140003297,"[0.25833333333333336, 0.2722222222222222, -0.21296296296296297]","[0.21481481481481482, -0.2675925925925926, -0.38796296296296295]","[1, 1, 1]","[0, 0, 0]","[0, 0, 0]","[4.689994400003343, 9.423012600003858, 20.272849999993923]",0.008836439999868162,20.28148243999749,['A2'],['B1'],['C1'],['yellow'],['salmon'],['blue'],1837.2231461999909,None,10.0,3.1965416000020923,1837.2231461999909,None,1850.9562082000048,None,10.0,1.9317627999989782,1847.1729654999945,None,4.0,3.6986736000108067,1840.4900396000012,None,8.0,6.681100100002368,<function functionImportanceC at 0x00000107812220D0>,<function functionImportanceB at 0x0000010780BDB7B8>,<function functionImportanceA at 0x0000010780BDB378>,,,8.0,1.9317627999989782,0.0,2.0479883999942103,1.0,4.397634299995843,<function functiondiffC at 0x000001078177D8C8>,<function functiondiffA at 0x0000010781222A60>,<function functiondiffB at 0x0000010781222158>,,,,,1816.4648962999927,1859.4228686999995,None,1852.8229896999983,None,1857.3729701999982,None,007,001,2022_Jun_14_1248,2leo,2021.2.3,60.00826913608638,
3,33,Plan the items to decorate your Christmas tree,Stimuli/33A1.jpg,Stimuli/33A2.jpg,Stimuli/33A3.jpg,Stimuli/33B1.jpg,Stimuli/33B2.jpg,Stimuli/33B3.jpg,Stimuli/33C1.jpg,Stimuli/33C2.jpg,Stimuli/33C3.jpg,,,,,0,23,23,33,,,,,,,,1863.3389099999913,None,1864.3392996000039,None,1870.3392923999927,None,"[-0.378, -0.136]","[0.304, -0.26]","[0.07, 0.393]","[-0.377, 0.138]","[0.066, -0.395]","[0.306, 0.255]","[-0.2, 0.346]","[-0.203, -0.347]","[0.399, -0.003]",,19.9820127600251,28.632115360014723,11.799468560013338,"[-0.1398148148148148, -0.38055555555555554, -0.3768518518518518]","[-0.2712962962962963, -0.09074074074074075, 0.1388888888888889]","[1, 1, 1]","[0, 0, 0]","[0, 0, 0]","[11.795530500006862, 19.97874380000576, 28.628589500003727]",0.002852860023267567,28.631155460025184,['A1'],['B1'],['C2'],['salmon'],['yellow'],['blue'],1901.1048935,None,3.0,4.3803799000015715,1901.1048935,None,1914.1046748999943,None,9.0,3.648814600004698,1917.2379696999997,None,1.0,4.648345099994913,1905.5715618999966,None,7.0,8.014168800000334,<function functionImportanceC at 0x000001078177D620>,<function functionImportanceA at 0x0000010781222EA0>,<function functionImportanceB at 0x000001078177D840>,,,2.0,3.648814600004698,5.0,4.181414699996822,6.0,6.097705799998948,<function functiondiffB at 0x0000010781222BF8>,<function functiondiffC at 0x0000010781222D08>,<function functiondiffA at 0x00000107812229D8>,,,,,1872.0055030999938,1921.887846800004,None,1928.0043386000034,None,1933.720874599996,None,007,001,2022_Jun_14_1248,2leo,2021.2.3,60.00826913608638,
3,14,Plan your own Pizza for dinner,Stimuli/14A1.jpg,Stimuli/14A2.jpg,Stimuli/14A3.jpg,Stimuli/14B1.jpg,Stimuli/14B2.jpg,Stimuli/14B3.jpg,Stimuli/14C1.jpg,Stimuli/14C2.jpg,Stimuli/14C3.jpg,,,,,0,24,24,14,,,,,,,,1937.3036722999968,None,1938.3042564999923,None,1944.3040583999973,None,"[0.306, 0.255]","[-0.377, 0.138]","[0.066, -0.395]","[0.399, -0.003]","[-0.2, 0.346]","[-0.203, -0.347]","[0.07, 0.393]","[-0.378, -0.136]","[0.304, -0.26]",,26.876398399996106,18.82618080000975,25.693182000002707,"[0.4111111111111111, 0.28425925925925927, 0.24814814814814815]","[-0.026851851851851852, -0.2074074074074074, 0.2518518518518518]","[1, 1, 1]","[0, 0, 0]","[0, 0, 0]","[18.811404000007315, 25.678053499999805, 26.861870100008673]",0.014029500001925044,26.87530300000799,['A1'],['B1'],['C3'],['salmon'],['yellow'],['blue'],1972.8029668999952,None,7.0,4.196246699997573,1972.8029668999952,None,1988.0527202999947,None,7.0,5.448137699990184,1977.1031168999907,None,10.0,5.697586600013892,1982.753039000003,None,8.0,5.23146710000583,<function functionImportanceB at 0x000001078177D488>,<function functionImportanceC at 0x000001078177D730>,<function functionImportanceA at 0x000001078177D400>,,,4.0,5.448137699990184,3.0,3.114501800009748,9.0,3.1818000999919605,<function functiondiffC at 0x0000010781222510>,<function functiondiffA at 0x00000107806ABF28>,<function functiondiffB at 0x0000010781222730>,,,,,1945.4575533000025,2001.4355844999955,None,1993.4692947000003,None,1998.2857772999996,None,007,001,2022_Jun_14_1248,2leo,2021.2.3,60.00826913608638,
3,30,Plan your sport work out for tomorrow,Stimuli/30A1.jpg,Stimuli/30A2.jpg,Stimuli/30A3.jpg,Stimuli/30B1.jpg,Stimuli/30B2.jpg,Stimuli/30B3.jpg,Stimuli/30C1.jpg,Stimuli/30C2.jpg,Stimuli/30C3.jpg,,,,,0,25,25,30,,,,,,,,2004.1186199999938,None,2005.1188349000004,None,2011.1189387999912,None,"[-0.203, -0.347]","[0.399, -0.003]","[-0.2, 0.346]","[0.066, -0.395]","[0.306, 0.255]","[-0.377, 0.138]","[0.304, -0.26]","[0.07, 0.393]","[-0.378, -0.136]",,22.106840800013742,24.75700870002038,17.807622400010587,"[-0.3435185185185185, -0.15925925925925927, 0.24722222222222223]","[-0.075, -0.2759259259259259, 0.28425925925925927]","[1, 1, 1]","[0, 0, 0]","[0, 0, 0]","[17.801901400001952, 22.101837000009255, 24.75172910001129]",0.00451380001322832,24.75608090001333,['A1'],['B2'],['C3'],['blue'],['yellow'],['salmon'],2037.5180198000016,None,4.0,4.331822899999679,2037.5180198000016,None,2050.2841316999984,None,10.0,3.5816029999987222,2041.968129300003,None,8.0,4.463433099997928,2046.4011460000038,None,2.0,3.8646515000000363,<function functionImportanceB at 0x000001078177D9D8>,<function functionImportanceC at 0x000001078177D048>,<function functionImportanceA at 0x000001078177DB70>,,,0.0,3.5816029999987222,2.0,3.2644328999886056,7.0,4.064527800001088,<function functiondiffA at 0x000001078177D2F0>,<function functiondiffB at 0x000001078177DD08>,<function functiondiffC at 0x000001078177D6A8>,,,,,2012.2808409999998,2057.1510411999916,None,2061.2175141000043,None,2053.8510169999936,None,007,001,2022_Jun_14_1248,2leo,2021.2.3,60.00826913608638,
3,24,Plan your Monday morning on a workday ,Stimuli/24A1.jpg,Stimuli/24A2.jpg,Stimuli/24A3.jpg,Stimuli/24B1.jpg,Stimuli/24B2.jpg,Stimuli/24B3.jpg,Stimuli/24C1.jpg,Stimuli/24C2.jpg,Stimuli/24C3.jpg,,,,,0,26,26,24,,,,,,,,2064.1003186000016,None,2065.100525899994,None,2071.100582999992,None,"[-0.203, -0.347]","[-0.2, 0.346]","[0.399, -0.003]","[0.304, -0.26]","[-0.378, -0.136]","[0.07, 0.393]","[0.066, -0.395]","[-0.377, 0.138]","[0.306, 0.255]",,14.101338679989567,13.285007279991987,18.73485687999346,"[-0.3055555555555556, 0.39351851851851855, 0.09444444444444444]","[-0.0712962962962963, -0.05092592592592592, -0.425]","[1, 1, 1]","[0, 0, 0]","[0, 0, 0]","[13.274609200001578, 14.091075999996974, 18.724254100001417]",0.009645479993196204,18.733855479993508,['A3'],['B2'],['C1'],['yellow'],['blue'],['salmon'],2091.416313499998,None,10.0,5.0303391000052216,2091.416313499998,None,2106.9662809,None,9.0,4.914789499991457,2096.5165439999982,None,1.0,6.64761990000261,2103.1830394999997,None,2.0,3.7821279000054346,<function functionImportanceB at 0x000001078177D268>,<function functionImportanceC at 0x000001078177DE18>,<function functionImportanceA at 0x0000010781222F28>,,,2.0,4.914789499991457,0.0,2.081451799997012,3.0,5.648116399999708,<function functiondiffC at 0x000001078177DBF8>,<function functiondiffB at 0x0000010781222C80>,<function functiondiffA at 0x0000010781222400>,,,,,2072.2070265999937,2117.349455000003,None,2111.8830369999923,None,2123.015707899991,None,007,001,2022_Jun_14_1248,2leo,2021.2.3,60.00826913608638,
3,34,Plan what car you want to buy,Stimuli/34A1.jpg,Stimuli/34A2.jpg,Stimuli/34A3.jpg,Stimuli/34B1.jpg,Stimuli/34B2.jpg,Stimuli/34B3.jpg,Stimuli/34C1.jpg,Stimuli/34C2.jpg,Stimuli/34C3.jpg,,,,,0,27,27,34,,,,,,,,2124.615609100001,None,2125.6158056999993,None,2131.6158164999943,None,"[0.07, 0.393]","[-0.378, -0.136]","[0.304, -0.26]","[0.399, -0.003]","[-0.2, 0.346]","[-0.203, -0.347]","[0.306, 0.255]","[-0.377, 0.138]","[0.066, -0.395]",,16.29342158003419,14.160654580031405,25.694030980026582,"[0.3768518518518518, 0.13333333333333333, 0.08518518518518518]","[-0.025925925925925925, 0.3194444444444444, -0.41574074074074074]","[1, 1, 1]","[0, 0, 0]","[0, 0, 0]","[14.152454700000817, 16.28550690000702, 25.68543700000737]",0.007510380033636466,25.692604080031742,['A1'],['B1'],['C3'],['blue'],['yellow'],['salmon'],2160.8313139999955,None,8.0,4.080263800002285,2160.8313139999955,None,2172.880927099992,None,10.0,3.764762200007681,2165.931318200004,None,7.0,6.898097400000552,2175.6809070000018,None,5.0,8.298450600006618,<function functionImportanceB at 0x000001078177D598>,<function functionImportanceA at 0x000001078177D7B8>,<function functionImportanceC at 0x000001078177D0D0>,,,8.0,3.764762200007681,1.0,6.697976299998118,-0.0,1.9310621000040555,<function functiondiffC at 0x000001078177DF28>,<function functiondiffA at 0x000001078177D1E0>,<function functiondiffB at 0x000001078177DC80>,,,,,2134.677290499996,2196.2972138999903,None,2183.964278700005,None,2189.664126100004,None,007,001,2022_Jun_14_1248,2leo,2021.2.3,60.00826913608638,
3,25,Plan how you want to read a book in your free time ,Stimuli/25A1.jpg,Stimuli/25A2.jpg,Stimuli/25A3.jpg,Stimuli/25B1.jpg,Stimuli/25B2.jpg,Stimuli/25B3.jpg,Stimuli/25C1.jpg,Stimuli/25C2.jpg,Stimuli/25C3.jpg,,,,,0,28,28,25,,,,,,,,2197.4801382000005,None,2198.4807212000014,None,2204.480394500002,None,"[0.304, -0.26]","[-0.378, -0.136]","[0.07, 0.393]","[0.066, -0.395]","[-0.377, 0.138]","[0.306, 0.255]","[-0.203, -0.347]","[-0.2, 0.346]","[0.399, -0.003]",,11.596753760022693,13.263533160017687,24.413573060024646,"[0.3037037037037037, -0.44907407407407407, -0.22407407407407406]","[-0.24537037037037038, 0.09537037037037037, -0.38055555555555554]","[1, 1, 1]","[0, 0, 0]","[0, 0, 0]","[11.587015800003428, 13.253452000004472, 24.403362500001094]",0.009291760012274608,24.412396860017907,['A1'],['B2'],['C1'],['blue'],['yellow'],['salmon'],2230.8461053999927,None,7.0,4.164047900005244,2230.8461053999927,None,2241.996398999996,None,7.0,3.8320447000005515,2245.879307700001,None,10.0,2.7486407999967923,2235.3999317999987,None,2.0,6.881191199994646,<function functionImportanceC at 0x0000010781C96950>,<function functionImportanceA at 0x0000010781C96510>,<function functionImportanceB at 0x0000010781C961E0>,,,4.0,3.8320447000005515,1.0,3.1979321999970125,-0.0,2.114497400005348,<function functiondiffC at 0x0000010781C966A8>,<function functiondiffA at 0x0000010781222B70>,<function functiondiffB at 0x000001078177D510>,,,,,2205.972982499996,2261.129032900004,None,2248.645888500003,None,2257.895655100001,None,007,001,2022_Jun_14_1248,2leo,2021.2.3,60.00826913608638,
3,36,Plan your shopping for new clothing,Stimuli/36A1.jpg,Stimuli/36A2.jpg,Stimuli/36A3.jpg,Stimuli/36B1.jpg,Stimuli/36B2.jpg,Stimuli/36B3.jpg,Stimuli/36C1.jpg,Stimuli/36C2.jpg,Stimuli/36C3.jpg,,,,,0,29,29,36,,,,,,,,2262.745380399996,None,2263.745368899996,None,2269.7454179999913,None,"[0.306, 0.255]","[0.066, -0.395]","[-0.377, 0.138]","[0.07, 0.393]","[0.304, -0.26]","[-0.378, -0.136]","[0.399, -0.003]","[-0.203, -0.347]","[-0.2, 0.346]",,15.071856979993754,22.53828977998637,15.90588487999048,"[0.006481481481481481, -0.12777777777777777, -0.34074074074074073]","[-0.33611111111111114, -0.31851851851851853, -0.1425925925925926]","[1, 1, 1]","[0, 0, 0]","[0, 0, 0]","[15.068204699986381, 15.901797299986356, 22.534381399993435]",0.003091179984039627,22.537165479996474,['A2'],['B3'],['C2'],['yellow'],['blue'],['salmon'],2293.8779750999965,None,9.0,5.147131799996714,2293.8779750999965,None,2306.3278266999987,None,4.0,5.198551299996325,2311.527415699995,None,9.0,2.4819987999944715,2299.1113965999975,None,7.0,7.214723800003412,<function functionImportanceC at 0x0000010781C960D0>,<function functionImportanceA at 0x0000010781C969D8>,<function functionImportanceB at 0x0000010781C96378>,,,-0.0,5.198551299996325,7.0,5.697623400003067,5.0,7.231068799999775,<function functiondiffA at 0x000001078177DEA0>,<function functiondiffC at 0x0000010781C96AE8>,<function functiondiffB at 0x000001078177D950>,,,,,2270.8586918999936,2324.0437586999906,None,2319.7107206999935,None,2314.0109441999957,None,007,001,2022_Jun_14_1248,2leo,2021.2.3,60.00826913608638,
3,16,Plan a delicious cake for the birthday of a friend,Stimuli/16A1.jpg,Stimuli/16A2.jpg,Stimuli/16A3.jpg,Stimuli/16B1.jpg,Stimuli/16B2.jpg,Stimuli/16B3.jpg,Stimuli/16C1.jpg,Stimuli/16C2.jpg,Stimuli/16C3.jpg,,,,,0,30,30,16,,,,,,,,2378.1592047000013,None,2379.1591368999943,None,2385.159124500002,None,"[0.07, 0.393]","[0.304, -0.26]","[-0.378, -0.136]","[0.306, 0.255]","[0.066, -0.395]","[-0.377, 0.138]","[0.399, -0.003]","[-0.203, -0.347]","[-0.2, 0.346]",,14.935366899997462,15.886649699998088,16.70284719999472,"[0.32407407407407407, -0.3277777777777778, -0.24259259259259258]","[-0.22592592592592592, 0.14351851851851852, 0.2740740740740741]","[1, 1, 1]","[0, 0, 0]","[0, 0, 0]","[14.923013000006904, 15.873973400011891, 16.68991570000071]",0.011587600005441345,16.701420400000643,['A2'],['B3'],['C3'],['blue'],['yellow'],['salmon'],2403.741738500001,None,9.0,3.5131079999991925,2403.741738500001,None,2407.3083879999904,None,10.0,4.697778800007654,2412.2581805999944,None,9.0,7.615123600000516,2419.7412743000023,None,7.0,3.481463200005237,<function functionImportanceA at 0x0000010781C96620>,<function functionImportanceB at 0x0000010781C96048>,<function functionImportanceC at 0x0000010781C96BF8>,,,2.0,4.697778800007654,0.0,4.464406600003713,2.0,2.681547000000137,<function functiondiffA at 0x000001078177DAE8>,<function functiondiffC at 0x0000010781C96E18>,<function functiondiffB at 0x0000010781222840>,,,,,2386.583881899991,2430.424421299991,None,2427.6411659000005,None,2423.1413090999995,None,007,001,2022_Jun_14_1248,2leo,2021.2.3,60.00826913608638,
3,15,Plan your own Pasta for lunch,Stimuli/15A1.jpg,Stimuli/15A2.jpg,Stimuli/15A3.jpg,Stimuli/15B1.jpg,Stimuli/15B2.jpg,Stimuli/15B3.jpg,Stimuli/15C1.jpg,Stimuli/15C2.jpg,Stimuli/15C3.jpg,,,,,0,31,31,15,,,,,,,,2432.590802299994,None,2433.591105600004,None,2439.5909864999994,None,"[0.304, -0.26]","[0.07, 0.393]","[-0.378, -0.136]","[0.066, -0.395]","[0.306, 0.255]","[-0.377, 0.138]","[-0.203, -0.347]","[0.399, -0.003]","[-0.2, 0.346]",,17.046398260019487,16.413570160017116,18.63034656002128,"[0.07777777777777778, 0.23981481481481481, -0.22037037037037038]","[-0.3685185185185185, -0.3148148148148148, 0.4046296296296296]","[1, 1, 1]","[0, 0, 0]","[0, 0, 0]","[16.401501900007133, 17.03451949999726, 18.61788360000355]",0.01139766002597753,18.629158160023508,['A1'],['B1'],['C3'],['blue'],['yellow'],['salmon'],2460.5901337999967,None,8.0,4.730466199995135,2460.5901337999967,None,2472.9231124999933,None,7.0,3.514906999989762,2476.3731769000005,None,10.0,2.315254000001005,2466.0768700000044,None,4.0,7.447538899999927,<function functionImportanceC at 0x00000107822FA6A8>,<function functionImportanceA at 0x0000010780BDBAE8>,<function functionImportanceB at 0x0000010781C96D08>,,,0.0,3.514906999989762,1.0,5.264368599993759,3.0,2.8479618999990635,<function functiondiffA at 0x000001078177D158>,<function functiondiffC at 0x0000010781C962F0>,<function functiondiffB at 0x0000010781C96A60>,,,,,2441.5028175999905,2486.6561470000015,None,2484.1065318000037,None,2478.6898628999916,None,007,001,2022_Jun_14_1248,2leo,2021.2.3,60.00826913608638,
3,27,Plan what festival to visit with your friends,Stimuli/27A1.jpg,Stimuli/27A2.jpg,Stimuli/27A3.jpg,Stimuli/27B1.jpg,Stimuli/27B2.jpg,Stimuli/27B3.jpg,Stimuli/27C1.jpg,Stimuli/27C2.jpg,Stimuli/27C3.jpg,,,,,0,32,32,27,,,,,,,,2489.0225087,None,2490.022845600004,None,2496.022797999991,None,"[-0.2, 0.346]","[0.399, -0.003]","[-0.203, -0.347]","[-0.378, -0.136]","[0.07, 0.393]","[0.304, -0.26]","[-0.377, 0.138]","[0.306, 0.255]","[0.066, -0.395]",,21.174501179993968,39.24092087999452,20.508389480004553,"[0.05740740740740741, -0.1388888888888889, -0.33055555555555555]","[-0.38981481481481484, -0.3574074074074074, -0.1537037037037037]","[1, 1, 1]","[0, 0, 0]","[0, 0, 0]","[20.502723800003878, 21.16931330000807, 39.23571490000177]",0.004542180002317764,39.23993778000295,['A3'],['B1'],['C3'],['yellow'],['salmon'],['blue'],2536.8548212000023,None,4.0,4.130257900003926,2536.8548212000023,None,2548.2714429000043,None,10.0,3.0150099999882514,2551.304440299995,None,8.0,2.0655420999974012,2541.0714950999973,None,4.0,7.214005200003157,<function functionImportanceC at 0x00000107822FA620>,<function functionImportanceA at 0x0000010780BDBB70>,<function functionImportanceB at 0x0000010781C96730>,,,1.0,3.0150099999882514,7.0,6.09754659999453,9.0,5.481083100006799,<function functiondiffA at 0x0000010781C96488>,<function functiondiffC at 0x000001078177DD90>,<function functiondiffB at 0x0000010781C96598>,,,,,2497.134764599992,2562.9543525000045,None,2559.4877759999945,None,2553.371233999991,None,007,001,2022_Jun_14_1248,2leo,2021.2.3,60.00826913608638,
3,19,Plan how you want your garden to look like,Stimuli/19A1.jpg,Stimuli/19A2.jpg,Stimuli/19A3.jpg,Stimuli/19B1.jpg,Stimuli/19B2.jpg,Stimuli/19B3.jpg,Stimuli/19C1.jpg,Stimuli/19C2.jpg,Stimuli/19C3.jpg,,,,,0,33,33,19,,,,,,,,2567.953732599999,None,2568.9541601999954,None,2574.9539982999995,None,"[0.066, -0.395]","[-0.377, 0.138]","[0.306, 0.255]","[0.304, -0.26]","[-0.378, -0.136]","[0.07, 0.393]","[-0.203, -0.347]","[-0.2, 0.346]","[0.399, -0.003]",,28.976338960055728,25.626942860049894,32.31006026006071,"[-0.35185185185185186, 0.06759259259259259, -0.13425925925925927]","[-0.13055555555555556, -0.36018518518518516, -0.3425925925925926]","[1, 1, 1]","[0, 0, 0]","[0, 0, 0]","[25.624310200000764, 28.97406680000131, 32.307280699998955]",0.0018584600620670244,32.30886806004855,['A1'],['B2'],['C1'],['yellow'],['blue'],['salmon'],2611.3361138000037,None,3.0,3.7638136000023223,2611.3361138000037,None,2623.6692445999943,None,10.0,3.081763599999249,2616.2696141999913,None,7.0,8.464469899990945,2628.1192254999914,None,9.0,3.615380200004438,<function functionImportanceB at 0x00000107822FA0D0>,<function functionImportanceA at 0x00000107822FAE18>,<function functionImportanceC at 0x00000107822FAD08>,,,7.0,3.081763599999249,8.0,7.164438899999368,2.0,7.431192899995949,<function functiondiffA at 0x0000010781C96158>,<function functiondiffB at 0x00000107822FAAE8>,<function functiondiffC at 0x00000107822FABF8>,,,,,2578.5644257999957,2637.7857933999912,None,2645.368654399994,None,2630.352418800001,None,007,001,2022_Jun_14_1248,2leo,2021.2.3,60.00826913608638,
3,32,Plan how you want to relax after a workday,Stimuli/32A1.jpg,Stimuli/32A2.jpg,Stimuli/32A3.jpg,Stimuli/32B1.jpg,Stimuli/32B2.jpg,Stimuli/32B3.jpg,Stimuli/32C1.jpg,Stimuli/32C2.jpg,Stimuli/32C3.jpg,,,,,0,34,34,32,,,,,,,,2649.1182598000014,None,2650.1185071999935,None,2656.1186717999954,None,"[-0.378, -0.136]","[0.304, -0.26]","[0.07, 0.393]","[-0.2, 0.346]","[-0.203, -0.347]","[0.399, -0.003]","[-0.377, 0.138]","[0.066, -0.395]","[0.306, 0.255]",,15.360772400032147,8.564469800025108,19.961305000033462,"[-0.21851851851851853, -0.3509259259259259, 0.05740740740740741]","[0.35648148148148145, -0.18333333333333332, -0.3388888888888889]","[1, 1, 1]","[0, 0, 0]","[0, 0, 0]","[8.55562519999512, 15.352667800005293, 19.952590900007635]",0.007693600025959313,19.960215600032825,['A1'],['B1'],['C2'],['salmon'],['yellow'],['blue'],2679.567763500003,None,10.0,3.114176299990504,2679.567763500003,None,2692.2509225999966,None,8.0,6.464940799996839,2683.5678353999974,None,10.0,4.4642894999997225,2687.2842455999926,None,3.0,3.914999500004342,<function functionImportanceB at 0x00000107822FAB70>,<function functionImportanceC at 0x00000107822FA7B8>,<function functionImportanceA at 0x00000107822FAC80>,,,1.0,6.464940799996839,7.0,8.247785100000328,0.0,2.681440799991833,<function functiondiffA at 0x0000010781222E18>,<function functiondiffC at 0x00000107822FAA60>,<function functiondiffB at 0x00000107822FA8C8>,,,,,2659.1452026000043,2710.5503981999937,None,2705.8839974,None,2697.9505529000016,None,007,001,2022_Jun_14_1248,2leo,2021.2.3,60.00826913608638,
3,11,Plan a hike in nature on a free day,Stimuli/11A1.jpg,Stimuli/11A2.jpg,Stimuli/11A3.jpg,Stimuli/11B1.jpg,Stimuli/11B2.jpg,Stimuli/11B3.jpg,Stimuli/11C1.jpg,Stimuli/11C2.jpg,Stimuli/11C3.jpg,,,,,0,35,35,11,,,,,,,,2712.583273299999,None,2713.5834417000005,None,2719.583602300001,None,"[0.306, 0.255]","[0.066, -0.395]","[-0.377, 0.138]","[0.07, 0.393]","[0.304, -0.26]","[-0.378, -0.136]","[0.399, -0.003]","[-0.203, -0.347]","[-0.2, 0.346]",,10.81020140000328,5.8277940999978455,11.577687400000286,"[-0.37962962962962965, 0.32592592592592595, 0.3824074074074074]","[-0.11666666666666667, 0.31203703703703706, 0.06851851851851852]","[1, 1, 1]","[0, 0, 0]","[0, 0, 0]","[5.812536500001443, 10.795372900000075, 11.562316299998201]",0.014399799998500384,11.576434300004621,['A1'],['B3'],['C1'],['blue'],['yellow'],['salmon'],2732.7830395999918,None,8.0,3.48027159999765,2732.7830395999918,None,2740.5662835999974,None,10.0,2.8486017000104766,2743.432992599992,None,10.0,2.4494189000106417,2736.3330675000034,None,3.0,4.181071500002872,<function functionImportanceC at 0x00000107822FA840>,<function functionImportanceA at 0x00000107822FA488>,<function functionImportanceB at 0x00000107822FA2F0>,,,0.0,2.8486017000104766,4.0,8.830598200001987,1.0,4.181640100010554,<function functiondiffA at 0x00000107822FA378>,<function functiondiffC at 0x00000107822FAF28>,<function functiondiffB at 0x00000107822FAEA0>,,,,,2720.7366312999948,2758.5676452999905,None,2754.682391299997,None,2745.833042500002,None,007,001,2022_Jun_14_1248,2leo,2021.2.3,60.00826913608638,
3,39,Plan what kind of watch you want to buy,Stimuli/39A1.jpg,Stimuli/39A2.jpg,Stimuli/39A3.jpg,Stimuli/39B1.jpg,Stimuli/39B2.jpg,Stimuli/39B3.jpg,Stimuli/39C1.jpg,Stimuli/39C2.jpg,Stimuli/39C3.jpg,,,,,0,36,36,39,,,,,,,,2762.2652895999927,None,2763.265680299999,None,2769.265722099997,None,"[-0.203, -0.347]","[0.399, -0.003]","[-0.2, 0.346]","[0.304, -0.26]","[0.07, 0.393]","[-0.378, -0.136]","[0.066, -0.395]","[0.306, 0.255]","[-0.377, 0.138]",,18.003852060006466,28.554071659993497,12.354371759996866,"[0.06944444444444445, 0.3712962962962963, 0.11574074074074074]","[-0.3333333333333333, -0.06481481481481481, 0.337037037037037]","[1, 1, 1]","[0, 0, 0]","[0, 0, 0]","[12.350548300004448, 18.000512500002515, 28.550455200005672]",0.0028527599934022874,28.553010760006146,['A2'],['B2'],['C1'],['blue'],['yellow'],['salmon'],2799.4478616999986,None,6.0,5.830072400000063,2799.4478616999986,None,2809.764441499996,None,9.0,4.0820263999921735,2813.8476063999988,None,10.0,1.8819382999936352,2805.397849300003,None,2.0,4.397490799994557,<function functionImportanceC at 0x00000107827B8840>,<function functionImportanceA at 0x0000010781C968C8>,<function functionImportanceB at 0x00000107822FAD90>,,,-0.0,4.0820263999921735,0.0,5.664408500000718,9.0,5.830753199988976,<function functiondiffB at 0x00000107822FA268>,<function functiondiffA at 0x00000107822FA048>,<function functiondiffC at 0x0000010781C96EA0>,,,,,2770.4131093000033,2815.730831199995,None,2827.2639131000033,None,2821.5809509999963,None,007,001,2022_Jun_14_1248,2leo,2021.2.3,60.00826913608638,
3,12,Plan the ingredients to mix yourself a cocktail,Stimuli/12A1.jpg,Stimuli/12A2.jpg,Stimuli/12A3.jpg,Stimuli/12B1.jpg,Stimuli/12B2.jpg,Stimuli/12B3.jpg,Stimuli/12C1.jpg,Stimuli/12C2.jpg,Stimuli/12C3.jpg,,,,,0,37,37,12,,,,,,,,2830.480165599991,None,2831.480479299993,None,2837.4806230999966,None,"[-0.2, 0.346]","[-0.203, -0.347]","[0.399, -0.003]","[-0.377, 0.138]","[0.066, -0.395]","[0.306, 0.255]","[-0.378, -0.136]","[0.304, -0.26]","[0.07, 0.393]",,23.85981952000293,17.760315820007236,10.82738282000355,"[0.1287037037037037, 0.26481481481481484, -0.2101851851851852, -0.2]","[0.4185185185185185, 0.23333333333333334, -0.25462962962962965, -0.27037037037037037]","[1, 1, 1, 1]","[0, 0, 0, 0]","[0, 0, 0, 0]","[10.82039850000001, 17.753624900011346, 22.82032810000237, 23.853509800013853]",0.00577292000525631,23.85917111999879,['A2'],['B3'],['C3'],['blue'],['yellow'],['salmon'],2862.9463262999925,None,7.0,9.61347250000108,2862.9463262999925,None,2875.7959515999974,None,8.0,4.215477799996734,2879.995933500002,None,3.0,4.131406300002709,2872.6294086999987,None,10.0,3.1309673999930965,<function functionImportanceC at 0x00000107827B8B70>,<function functionImportanceA at 0x000001078177DA60>,<function functionImportanceB at 0x00000107827B8BF8>,,,4.0,4.215477799996734,7.0,6.447237599990331,6.0,11.029789100008202,<function functiondiffC at 0x0000010781C96D90>,<function functiondiffB at 0x00000107822FA510>,<function functiondiffA at 0x00000107822FA9D8>,,,,,2838.608055199991,2889.5124053000036,None,2884.129250999991,None,2900.5621361999947,None,007,001,2022_Jun_14_1248,2leo,2021.2.3,60.00826913608638,
3,0,Plan a barbecue,Stimuli/0A1.jpg,Stimuli/0A2.jpg,Stimuli/0A3.jpg,Stimuli/0B1.jpg,Stimuli/0B2.jpg,Stimuli/0B3.jpg,Stimuli/0C1.jpg,Stimuli/0C2.jpg,Stimuli/0C3.jpg,,,,,0,38,38,0,,,,,,,,2906.528166899996,None,2907.5288350000046,None,2913.5287020999967,None,"[-0.2, 0.346]","[-0.203, -0.347]","[0.399, -0.003]","[-0.377, 0.138]","[0.066, -0.395]","[0.306, 0.255]","[-0.378, -0.136]","[0.304, -0.26]","[0.07, 0.393]",,10.724808740036679,19.176105040038237,24.841729140040115,"[-0.21481481481481482, 0.07685185185185185, -0.4462962962962963]","[-0.2962962962962963, -0.36203703703703705, -0.14074074074074075]","[1, 1, 1]","[0, 0, 0]","[0, 0, 0]","[10.720940400002291, 19.171992699994007, 24.837466400000267]",0.0032928400323726237,24.840569840031094,['A2'],['B2'],['C1'],['blue'],['yellow'],['salmon'],2941.2942514000024,None,6.0,3.7135713000025135,2941.2942514000024,None,2956.427427100003,None,10.0,4.448239899997134,2950.860618699997,None,8.0,4.215038299997104,2945.0609285999963,None,6.0,5.764620999994804,<function functionImportanceC at 0x00000107827B8730>,<function functionImportanceB at 0x00000107827B8F28>,<function functionImportanceA at 0x00000107827B8510>,,,6.0,4.448239899997134,3.0,5.564318099990487,0.0,3.181026700010989,<function functiondiffA at 0x0000010781C96840>,<function functiondiffC at 0x00000107827B87B8>,<function functiondiffB at 0x00000107827B8620>,,,,,2915.9895122000016,2971.626952999999,None,2965.110420600002,None,2959.927219899997,None,007,001,2022_Jun_14_1248,2leo,2021.2.3,60.00826913608638,
3,42,Plan how to draw a painting ,Stimuli/42A1.jpg,Stimuli/42A2.jpg,Stimuli/42A3.jpg,Stimuli/42B1.jpg,Stimuli/42B2.jpg,Stimuli/42B3.jpg,Stimuli/42C1.jpg,Stimuli/42C2.jpg,Stimuli/42C3.jpg,,,,,0,39,39,42,,,,,,,,2974.3264251999935,None,2975.3270048999984,None,2981.3268858999945,None,"[-0.203, -0.347]","[0.399, -0.003]","[-0.2, 0.346]","[0.066, -0.395]","[0.306, 0.255]","[-0.377, 0.138]","[0.304, -0.26]","[0.07, 0.393]","[-0.378, -0.136]",,21.293451179997646,11.01070207999146,23.327246379994904,"[0.004629629629629629, -0.1814814814814815, 0.3287037037037037]","[-0.3611111111111111, 0.3212962962962963, -0.19444444444444445]","[1, 1, 1]","[0, 0, 0]","[0, 0, 0]","[11.003377899993211, 21.286171499988995, 23.319683099995018]",0.006633679993683472,23.326024280002457,['A3'],['B1'],['C1'],['salmon'],['blue'],['yellow'],3006.409354599993,None,2.0,3.680116599993198,3006.409354599993,None,3031.693332199997,None,8.0,2.3154216000111774,3010.1621891999966,None,5.0,14.180878099999973,3024.342016900002,None,9.0,7.115172399993753,<function functionImportanceB at 0x00000107827B8598>,<function functionImportanceC at 0x00000107827B8158>,<function functionImportanceA at 0x00000107822FA730>,,,7.0,2.3154216000111774,9.0,2.3647796000004746,4.0,6.514257800008636,<function functiondiffB at 0x00000107827B8C80>,<function functiondiffC at 0x00000107827B8EA0>,<function functiondiffA at 0x00000107822FA158>,,,,,2982.605766599998,3033.7920640999946,None,3040.325133499995,None,3046.2249850999942,None,007,001,2022_Jun_14_1248,2leo,2021.2.3,60.00826913608638,
3,6,Plan your wedding,Stimuli/6A1.jpg,Stimuli/6A2.jpg,Stimuli/6A3.jpg,Stimuli/6B1.jpg,Stimuli/6B2.jpg,Stimuli/6B3.jpg,Stimuli/6C1.jpg,Stimuli/6C2.jpg,Stimuli/6C3.jpg,,,,,0,40,40,6,,,,,,,,3048.0744600000035,None,3049.074969399997,None,3055.0749440999934,None,"[-0.203, -0.347]","[0.399, -0.003]","[-0.2, 0.346]","[0.066, -0.395]","[0.306, 0.255]","[-0.377, 0.138]","[0.304, -0.26]","[0.07, 0.393]","[-0.378, -0.136]",,10.58950472009019,17.839387320098467,17.18976122009917,"[0.3712962962962963, 0.05185185185185185, 0.10185185185185185]","[-0.021296296296296296, 0.3314814814814815, -0.44722222222222224]","[1, 1, 1]","[0, 0, 0]","[0, 0, 0]","[10.581162899994524, 17.180907799993292, 17.83087209999212]",0.007767820090521127,17.838570220090332,['A2'],['B1'],['C2'],['salmon'],['yellow'],['blue'],3078.474070600001,None,9.0,2.814331999994465,3078.474070600001,None,3095.3594425000047,None,10.0,4.332149399997434,3090.357837699994,None,7.0,5.498168199992506,3082.5240304000035,None,4.0,7.331443999995827,<function functionImportanceC at 0x00000107822FA400>,<function functionImportanceB at 0x00000107822FA1E0>,<function functionImportanceA at 0x00000107827B8D08>,,,0.0,4.332149399997434,-0.0,3.213791100002709,1.0,6.130917499991483,<function functiondiffA at 0x00000107827B8400>,<function functiondiffB at 0x00000107827B8E18>,<function functiondiffC at 0x00000107827B86A8>,,,,,3060.1785017999937,3102.156863700002,None,3108.3066188999946,None,3098.840372999999,None,007,001,2022_Jun_14_1248,2leo,2021.2.3,60.00826913608638,
3,8,Plan the interior of your living-room ,Stimuli/8A1.jpg,Stimuli/8A2.jpg,Stimuli/8A3.jpg,Stimuli/8B1.jpg,Stimuli/8B2.jpg,Stimuli/8B3.jpg,Stimuli/8C1.jpg,Stimuli/8C2.jpg,Stimuli/8C3.jpg,,,,,0,41,41,8,,,,,,,,3111.422910399997,None,3112.4230011000036,None,3118.423141399995,None,"[-0.378, -0.136]","[0.07, 0.393]","[0.304, -0.26]","[-0.2, 0.346]","[0.399, -0.003]","[-0.203, -0.347]","[-0.377, 0.138]","[0.306, 0.255]","[0.066, -0.395]",,38.88880878008786,16.90658288008126,31.77313968008093,"[-0.17407407407407408, 0.31574074074074077, -0.3592592592592593]","[-0.287962962962963, 0.19722222222222222, -0.18703703703703703]","[1, 1, 1]","[0, 0, 0]","[0, 0, 0]","[16.890527499999735, 31.75701279999339, 38.87326919999032]",0.015122180077014491,38.88826588008669,['A1'],['B3'],['C2'],['yellow'],['salmon'],['blue'],3162.6718492999935,None,4.0,3.3968107999971835,3162.6718492999935,None,3166.171767599997,None,10.0,2.9646706999919843,3170.921382100001,None,9.0,5.23170730000129,3176.3582139999926,None,3.0,4.065002400006051,<function functionImportanceA at 0x00000107827B80D0>,<function functionImportanceB at 0x00000107827B81E0>,<function functionImportanceC at 0x00000107827B8A60>,,,7.0,2.9646706999919843,9.0,4.347863699993468,2.0,5.01433000000543,<function functiondiffB at 0x00000107827B8AE8>,<function functiondiffA at 0x00000107827B8048>,<function functiondiffC at 0x0000010782E7E1E0>,,,,,3123.332622999995,3178.9381823000003,None,3188.3878966000048,None,3183.4547537000035,None,007,001,2022_Jun_14_1248,2leo,2021.2.3,60.00826913608638,
3,38,Plan how you want to go for a run,Stimuli/38A1.jpg,Stimuli/38A2.jpg,Stimuli/38A3.jpg,Stimuli/38B1.jpg,Stimuli/38B2.jpg,Stimuli/38B3.jpg,Stimuli/38C1.jpg,Stimuli/38C2.jpg,Stimuli/38C3.jpg,,,,,0,42,42,38,,,,,,,,3192.887666900002,None,3193.8878972999955,None,3199.8877267999924,None,"[0.306, 0.255]","[-0.377, 0.138]","[0.066, -0.395]","[0.399, -0.003]","[-0.2, 0.346]","[-0.203, -0.347]","[0.07, 0.393]","[-0.378, -0.136]","[0.304, -0.26]",,11.4894634999946,13.639276699992479,3.0077259999961825,"[-0.3314814814814815, -0.3287037037037037, 0.3638888888888889]","[-0.09537037037037037, 0.09259259259259259, -0.007407407407407408]","[1, 1, 1]","[0, 0, 0]","[0, 0, 0]","[2.9941347999993013, 11.476358899992192, 13.626017100003082]",0.012597399996593595,13.638389500003541,['A2'],['B1'],['C2'],['salmon'],['blue'],['yellow'],3215.237012700003,None,10.0,3.480404100002488,3215.237012700003,None,3229.2201717999997,None,10.0,3.264993799995864,3224.186971499992,None,8.0,5.0651791999989655,3218.9204283,None,8.0,5.331188000011025,<function functionImportanceC at 0x0000010782E7E598>,<function functionImportanceB at 0x0000010781C96C80>,<function functionImportanceA at 0x00000107827B82F0>,,,0.0,3.264993799995864,0.0,3.1146464999910677,1.0,3.4473251000017626,<function functiondiffB at 0x0000010781C96B70>,<function functiondiffA at 0x00000107827B8488>,<function functiondiffC at 0x0000010781C967B8>,,,,,3201.1268741999957,3232.4700366000034,None,3239.0867075999995,None,3235.936781700002,None,007,001,2022_Jun_14_1248,2leo,2021.2.3,60.00826913608638,
3,44,Plan a party at your place,Stimuli/44A1.jpg,Stimuli/44A2.jpg,Stimuli/44A3.jpg,Stimuli/44B1.jpg,Stimuli/44B2.jpg,Stimuli/44B3.jpg,Stimuli/44C1.jpg,Stimuli/44C2.jpg,Stimuli/44C3.jpg,,,,,0,43,43,44,,,,,,,,3241.4197617000027,None,3242.4197768000013,None,3248.419659799998,None,"[0.066, -0.395]","[-0.377, 0.138]","[0.306, 0.255]","[0.304, -0.26]","[-0.378, -0.136]","[0.07, 0.393]","[-0.203, -0.347]","[-0.2, 0.346]","[0.399, -0.003]",,25.553721100019175,15.50441610001144,16.271149500011234,"[0.037037037037037035, 0.362962962962963, 0.13518518518518519]","[0.3537037037037037, 0.049074074074074076, -0.37962962962962965]","[1, 1, 1]","[0, 0, 0]","[0, 0, 0]","[15.492408000005526, 16.25885769999877, 25.54216240000096]",0.011156900014611892,25.553002900021966,['A1'],['B3'],['C3'],['salmon'],['yellow'],['blue'],3275.6021424999926,None,6.0,4.480575800000224,3275.6021424999926,None,3280.1353831000015,None,9.0,7.430904200009536,3290.651814900004,None,7.0,2.3819781000056537,3287.5881710999965,None,4.0,3.0315450000052806,<function functionImportanceA at 0x0000010782E7EA60>,<function functionImportanceC at 0x0000010782E7EC80>,<function functionImportanceB at 0x0000010782E7E0D0>,,,4.0,7.430904200009536,8.0,3.4480363999900874,2.0,3.747503399994457,<function functiondiffB at 0x0000010782E7EB70>,<function functiondiffA at 0x0000010782E7E048>,<function functiondiffC at 0x0000010782E7E730>,,,,,3249.575207499991,3293.0185256999976,None,3300.251581199991,None,3296.785110900004,None,007,001,2022_Jun_14_1248,2leo,2021.2.3,60.00826913608638,
3,20,Plan a tea party with your friends,Stimuli/20A1.jpg,Stimuli/20A2.jpg,Stimuli/20A3.jpg,Stimuli/20B1.jpg,Stimuli/20B2.jpg,Stimuli/20B3.jpg,Stimuli/20C1.jpg,Stimuli/20C2.jpg,Stimuli/20C3.jpg,,,,,0,44,44,20,,,,,,,,3306.3347563999996,None,3307.3347653999954,None,3313.3346347000042,None,"[0.304, -0.26]","[0.07, 0.393]","[-0.378, -0.136]","[0.066, -0.395]","[0.306, 0.255]","[-0.377, 0.138]","[-0.203, -0.347]","[0.399, -0.003]","[-0.2, 0.346]",,13.149227340050857,20.965978740045102,33.83217434004473,"[-0.39351851851851855, -0.34629629629629627, 0.44907407407407407]","[-0.08611111111111111, 0.07592592592592592, -0.03425925925925926]","[1, 1, 1]","[0, 0, 0]","[0, 0, 0]","[13.135944800000289, 20.952465700000175, 33.818409400002565]",0.012682040047366172,33.831059940042906,['A3'],['B3'],['C2'],['yellow'],['salmon'],['blue'],3351.166935699992,None,6.0,6.1141595000081,3351.166935699992,None,3372.166573499999,None,8.0,6.098716799999238,3364.0496622999926,None,3.0,10.498415199996089,3357.3331754999963,None,8.0,4.263753399995039,<function functionImportanceC at 0x0000010782E7E158>,<function functionImportanceB at 0x0000010782E7E488>,<function functionImportanceA at 0x0000010782E7EAE8>,,,10.0,6.098716799999238,1.0,3.764582000003429,2.0,4.614380200000596,<function functiondiffB at 0x0000010782E7EBF8>,<function functiondiffC at 0x000001078177D378>,<function functiondiffA at 0x0000010782E7E840>,,,,,3316.880247699999,3378.799478400004,None,3382.866265299992,None,3385.7159767999983,None,007,001,2022_Jun_14_1248,2leo,2021.2.3,60.00826913608638,
