Condition,N_Scenario,written_scenario,ImageA1,ImageA2,ImageA3,ImageB1,ImageB2,ImageB3,ImageC1,ImageC2,ImageC3,trials_2.thisRepN,trials_2.thisTrialN,trials_2.thisN,trials_2.thisIndex,trial.thisRepN,trial.thisTrialN,trial.thisN,trial.thisIndex,button_2.started,button_2.stopped,button_2.numClicks,button_2.timesOn,button_2.timesOff,text.started,text.stopped,fixationcross1_started,fixationcross1_stopped,Scenario_started,Scenario_stopped,fixationcross2_started,fixationcross2_stopped,A1pos,A2pos,A3pos,B1pos,B2pos,B3pos,C1pos,C2pos,C3pos,﻿Imagesdecision_started,decisiontimeA,decisiontimeB,decisiontimeC,mouse_x,mouse_y,mouse_leftButton,mouse_midButton,mouse_rightButton,mouse_time,mouse_started,mouse_stopped,clicked_optionA,clicked_optionB,clicked_optionC,colour_category_A,colour_category_B,colour_category_C,question_confidence_started,question_confidence_stopped,slider_confidence_response,slider_confidence_rt,slider_confidence_started,slider_confidence_stopped,question_valueA_started,question_valueA_stopped,slider_valueA_response,slider_valueA_rt,question_valueC_started,question_valueC_stopped,slider_valueC_response,slider_valueC_rt,question_valueB_started,question_valueB_stopped,slider_valueB_response,slider_valueB_rt,Importance_First,Importance_Second,Importance_Third,question_diff_started,question_diff_stopped,slider_diffA_response,slider_diffA_rt,slider_diffB_response,slider_diffB_rt,slider_diffC_response,slider_diffC_rt,diff_First,diff_Second,diff_Third,button_3_started,button_3_stopped,text_2_started,text_2_stopped,Imagesdecision_started,question_diffA_started,question_diffA_stopped,question_diffB_started,question_diffB_stopped,question_diffC_started,question_diffC_stopped,participant,session,date,expName,psychopyVersion,frameRate,
3,2,Plan a party to celebrate your birthday,Stimuli/2A1t.jpg,Stimuli/2A2t.jpg,Stimuli/2A3t.jpg,Stimuli/2B1t.jpg,Stimuli/2B2t.jpg,Stimuli/2B3t.jpg,Stimuli/2C1t.jpg,Stimuli/2C2t.jpg,Stimuli/2C3t.jpg,0,0,0,0,,,,,18.077044599995133,None,1,[4.330056299993885],[4.33007440000074],18.077044599995133,None,70.07206510000105,None,71.08153460000176,None,77.08136739999463,None,"[-0.2, 0.346]","[0.399, -0.003]","[-0.203, -0.347]","[-0.377, 0.138]","[0.306, 0.255]","[0.066, -0.395]","[-0.378, -0.136]","[0.07, 0.393]","[0.304, -0.26]",81.11426770000253,22.4639579000941,16.297649300089688,26.497452500087093,"[-0.4305555555555556, -0.21944444444444444, 0.25092592592592594]","[0.12314814814814815, 0.3175925925925926, -0.18888888888888888]","[1, 1, 1]","[0, 0, 0]","[0, 0, 0]","[16.282461499999044, 22.449041200001375, 26.481872300006216]",0.014521400080411695,26.496039300080156,['A1'],['B1'],['C3'],['blue'],['yellow'],['salmon'],108.06391119999171,None,8.0,2.880503200009116,108.06391119999171,None,112.31368920000386,None,7.0,12.997603299998445,124.0470168000029,None,3.0,5.248405899998033,130.85077839999576,None,6.0,7.015022500010673,<function functionImportanceAt at 0x00000181C0DB1E18>,<function functionImportanceCt at 0x00000181D03BBD08>,<function functionImportanceBt at 0x00000181D03BBB70>,148.0630405999982,None,2.0,12.997603299998445,0.0,3.764887900004396,0.0,3.647855899995193,<function functiondiffAt at 0x00000181D0355BF8>,<function functiondiffBt at 0x00000181D03552F0>,<function functiondiffCt at 0x00000181D0355950>,,,,,,,,,,,,009,001,2022_Jun_14_1636,2leo,2021.2.3,59.97623741882167,
3,3,Plan one week of vacation,Stimuli/3A1t.jpg,Stimuli/3A2t.jpg,Stimuli/3A3t.jpg,Stimuli/3B1t.jpg,Stimuli/3B2t.jpg,Stimuli/3B3t.jpg,Stimuli/3C1t.jpg,Stimuli/3C2t.jpg,Stimuli/3C3t.jpg,0,1,1,1,,,,,,,,,,,,151.22952459999942,None,152.22956160000467,None,158.22952589999477,None,"[-0.378, -0.136]","[0.304, -0.26]","[0.07, 0.393]","[-0.2, 0.346]","[-0.203, -0.347]","[0.399, -0.003]","[-0.377, 0.138]","[0.066, -0.395]","[0.306, 0.255]",164.43789200000174,23.42088570013584,21.787270700137015,25.154768200140097,"[-0.1675925925925926, 0.33055555555555555, -0.45185185185185184]","[0.3037037037037037, -0.33240740740740743, 0.13055555555555556]","[1, 1, 1]","[0, 0, 0]","[0, 0, 0]","[21.77334860000701, 23.407173200001125, 25.140640300000086]",0.013215100145316683,25.153414500135113,['A2'],['B1'],['C1'],['yellow'],['blue'],['salmon'],190.04515920000267,None,8.0,2.730413299999782,190.04515920000267,None,194.72815860000264,None,4.0,6.464282000000821,211.17771259999427,None,9.0,5.131499900002382,201.02832209999906,None,6.0,10.39841670000169,<function functionImportanceAt at 0x00000181D03BBD90>,<function functionImportanceBt at 0x00000181D03BB9D8>,<function functionImportanceCt at 0x00000181BDC431E0>,225.57762500000536,None,2.0,6.464282000000821,2.0,4.281600599992089,2.0,5.747665999995661,<function functiondiffCt at 0x00000181D03559D8>,<function functiondiffBt at 0x00000181D0355598>,<function functiondiffAt at 0x00000181D0355AE8>,,,,,,,,,,,,009,001,2022_Jun_14_1636,2leo,2021.2.3,59.97623741882167,
3,21,Plan your sandwich for lunch,Stimuli/21A1.jpg,Stimuli/21A2.jpg,Stimuli/21A3.jpg,Stimuli/21B1.jpg,Stimuli/21B2.jpg,Stimuli/21B3.jpg,Stimuli/21C1.jpg,Stimuli/21C2.jpg,Stimuli/21C3.jpg,,,,,0,0,0,21,,,,,,,,271.58762469999783,None,272.57637710000563,None,278.5763236000057,None,"[-0.378, -0.136]","[0.304, -0.26]","[0.07, 0.393]","[-0.2, 0.346]","[-0.203, -0.347]","[0.399, -0.003]","[-0.377, 0.138]","[0.066, -0.395]","[0.306, 0.255]",,10.148583800008055,30.84829800001171,26.915168100007577,"[0.287962962962963, -0.30925925925925923, 0.33055555555555555]","[-0.18796296296296297, 0.06851851851851852, 0.013888888888888888]","[1, 1, 1]","[0, 0, 0]","[0, 0, 0]","[10.14789049999672, 26.914057700007106, 30.84722340000735]",0.0001934000028995797,30.847255600005155,['A2'],['B3'],['C1'],['blue'],['salmon'],['yellow'],311.07518879999407,None,4.0,2.0632731999940006,311.07518879999407,None,322.85835729999235,None,10.0,2.9648586999974214,313.2418968999991,None,7.0,6.83067850000225,320.09311439999146,None,0.0,2.715374699997483,<function functionImportanceC at 0x0000018180194B70>,<function functionImportanceB at 0x00000181D0355F28>,<function functionImportanceA at 0x00000181D03BBF28>,,,8.0,3.0142562999972142,7.0,7.013984299992444,3.0,2.9648586999974214,<function functiondiffA at 0x00000181D0355620>,<function functiondiffB at 0x00000181D0355488>,<function functiondiffC at 0x0000018180194400>,229.44424840000283,None,229.44424840000283,None,279.74206469999626,325.74166849999165,None,328.77489149999747,None,335.791281400001,None,009,001,2022_Jun_14_1636,2leo,2021.2.3,59.97623741882167,
3,42,Plan how to draw a painting ,Stimuli/42A1.jpg,Stimuli/42A2.jpg,Stimuli/42A3.jpg,Stimuli/42B1.jpg,Stimuli/42B2.jpg,Stimuli/42B3.jpg,Stimuli/42C1.jpg,Stimuli/42C2.jpg,Stimuli/42C3.jpg,,,,,0,1,1,42,,,,,,,,340.99118509999244,None,341.9914240999933,None,347.9911626999965,None,"[-0.203, -0.347]","[-0.2, 0.346]","[0.399, -0.003]","[0.066, -0.395]","[-0.377, 0.138]","[0.306, 0.255]","[0.304, -0.26]","[-0.378, -0.136]","[0.07, 0.393]",,16.744883899998968,14.561493000001065,34.24506339999789,"[0.037037037037037035, -0.1935185185185185, -0.37222222222222223]","[-0.3111111111111111, 0.2953703703703704, -0.1361111111111111]","[1, 1, 1]","[0, 0, 0]","[0, 0, 0]","[14.54519760000403, 16.72864909999771, 34.22834819999116]",0.015616500008036382,34.24371019999671,['A2'],['B1'],['C2'],['yellow'],['salmon'],['blue'],383.973278999998,None,6.0,2.7636443999945186,383.973278999998,None,392.47334349999437,None,7.0,2.5821626000106335,389.5733975000039,None,2.0,2.731921800004784,386.806622899996,None,10.0,2.7478974999976344,<function functionImportanceB at 0x00000181D0355EA0>,<function functionImportanceC at 0x0000018180194730>,<function functionImportanceA at 0x00000181CD6849D8>,,,3.0,4.431087999997544,0.0,3.3812849999958416,6.0,2.5821626000106335,<function functiondiffA at 0x00000181801949D8>,<function functiondiffB at 0x0000018180194378>,<function functiondiffC at 0x0000018180194840>,,,,,349.2608818000008,394.92319050000515,None,399.3397954999964,None,402.73970669999835,None,009,001,2022_Jun_14_1636,2leo,2021.2.3,59.97623741882167,
3,5,Plan a birthday party for your younger self when you turn eight,Stimuli/5A1.jpg,Stimuli/5A2.jpg,Stimuli/5A3.jpg,Stimuli/5B1.jpg,Stimuli/5B2.jpg,Stimuli/5B3.jpg,Stimuli/5C1.jpg,Stimuli/5C2.jpg,Stimuli/5C3.jpg,,,,,0,2,2,5,,,,,,,,406.7562818000006,None,407.75622999999905,None,413.7562571000017,None,"[-0.377, 0.138]","[0.306, 0.255]","[0.066, -0.395]","[-0.378, -0.136]","[0.07, 0.393]","[0.304, -0.26]","[-0.2, 0.346]","[0.399, -0.003]","[-0.203, -0.347]",,22.07697390015528,25.427073000158998,13.177611600156524,"[0.3768518518518518, 0.2722222222222222, 0.14166666666666666]","[0.003703703703703704, 0.20277777777777778, 0.3277777777777778]","[1, 1, 1]","[0, 0, 0]","[0, 0, 0]","[13.162333500004024, 22.06216430000495, 25.41203239999595]",0.01424830015457701,25.426108300162014,['A2'],['B2'],['C2'],['salmon'],['blue'],['yellow'],445.4550986999966,None,7.0,1.8136127999896416,445.4550986999966,None,460.47159469999315,None,6.0,7.231955099996412,455.20467059999646,None,7.0,3.281670900003519,448.838422300003,None,4.0,7.231410299995332,<function functionImportanceB at 0x0000018180194488>,<function functionImportanceC at 0x0000018180194BF8>,<function functionImportanceA at 0x0000018180194510>,,,2.0,4.380992300008074,1.0,3.0980760999955237,0.0,7.231955099996412,<function functiondiffC at 0x00000181D0355378>,<function functiondiffA at 0x00000181801948C8>,<function functiondiffB at 0x0000018180194D90>,,,,,419.5783991999924,470.7882835000055,None,474.75451309999335,None,465.23799300000246,None,009,001,2022_Jun_14_1636,2leo,2021.2.3,59.97623741882167,
3,10,Plan a restaurant visit with your family on the weekend ,Stimuli/10A1.jpg,Stimuli/10A2.jpg,Stimuli/10A3.jpg,Stimuli/10B1.jpg,Stimuli/10B2.jpg,Stimuli/10B3.jpg,Stimuli/10C1.jpg,Stimuli/10C2.jpg,Stimuli/10C3.jpg,,,,,0,3,3,10,,,,,,,,477.02109939999355,None,478.02110739999625,None,484.0210141999996,None,"[0.07, 0.393]","[0.304, -0.26]","[-0.378, -0.136]","[0.399, -0.003]","[-0.203, -0.347]","[-0.2, 0.346]","[0.306, 0.255]","[0.066, -0.395]","[-0.377, 0.138]",,22.64485880007851,29.77871880008024,24.96203010008321,"[-0.30648148148148147, 0.11574074074074074, -0.17777777777777778]","[-0.20277777777777778, -0.46111111111111114, -0.2777777777777778]","[1, 1, 1]","[0, 0, 0]","[0, 0, 0]","[22.638636699994095, 24.955356399994344, 29.772331899992423]",0.005642000076477416,29.77733040007297,['A3'],['B2'],['C2'],['salmon'],['blue'],['yellow'],518.3697262999922,None,6.0,1.6805681999976514,518.3697262999922,None,531.0529060999979,None,9.0,5.798187499996857,528.086493099996,None,10.0,2.7484253000002354,523.019749500003,None,9.0,7.94779710000148,<function functionImportanceB at 0x0000018180194D08>,<function functionImportanceC at 0x0000018180194C80>,<function functionImportanceA at 0x00000181D0355510>,,,4.0,6.231059199999436,7.0,5.081000900012441,1.0,5.798187499996857,<function functiondiffC at 0x0000018180194048>,<function functiondiffB at 0x00000181801946A8>,<function functiondiffA at 0x0000018180194AE8>,,,,,488.1285141999979,545.035893799999,None,540.7194643999974,None,536.6362125000014,None,009,001,2022_Jun_14_1636,2leo,2021.2.3,59.97623741882167,
3,16,Plan a delicious cake for the birthday of a friend,Stimuli/16A1.jpg,Stimuli/16A2.jpg,Stimuli/16A3.jpg,Stimuli/16B1.jpg,Stimuli/16B2.jpg,Stimuli/16B3.jpg,Stimuli/16C1.jpg,Stimuli/16C2.jpg,Stimuli/16C3.jpg,,,,,0,4,4,16,,,,,,,,550.7691039000056,None,551.7691051000002,None,557.7691518999927,None,"[0.304, -0.26]","[-0.378, -0.136]","[0.07, 0.393]","[-0.203, -0.347]","[-0.2, 0.346]","[0.399, -0.003]","[0.066, -0.395]","[-0.377, 0.138]","[0.306, 0.255]",,14.648498000009567,25.3170303000079,30.465374600011273,"[0.24722222222222223, 0.3296296296296296, 0.005555555555555556]","[-0.22685185185185186, 0.04814814814814815, -0.41203703703703703]","[1, 1, 1]","[0, 0, 0]","[0, 0, 0]","[14.646140999990166, 25.314246499998262, 30.46250809999765]",0.0019525000097928569,30.4643805000087,['A1'],['B3'],['C1'],['salmon'],['blue'],['yellow'],590.1678897999955,None,4.0,2.263877599994885,590.1678897999955,None,595.9177886999969,None,10.0,1.998913999996148,592.5680672000017,None,6.0,3.397937500005355,598.2346080999996,None,8.0,3.515253200006555,<function functionImportanceC at 0x0000018180875840>,<function functionImportanceA at 0x00000181D03550D0>,<function functionImportanceB at 0x0000018180194950>,,,7.0,3.730811100002029,9.0,2.3815210000029765,5.0,1.998913999996148,<function functiondiffA at 0x00000181C5A02E18>,<function functiondiffB at 0x0000018180194158>,<function functiondiffC at 0x00000181808750D0>,,,,,559.2348681000003,601.4345113000018,None,605.2341414999973,None,607.6006935000041,None,009,001,2022_Jun_14_1636,2leo,2021.2.3,59.97623741882167,
3,12,Plan the ingredients to mix yourself a cocktail,Stimuli/12A1.jpg,Stimuli/12A2.jpg,Stimuli/12A3.jpg,Stimuli/12B1.jpg,Stimuli/12B2.jpg,Stimuli/12B3.jpg,Stimuli/12C1.jpg,Stimuli/12C2.jpg,Stimuli/12C3.jpg,,,,,0,5,5,12,,,,,,,,610.1840627000056,None,611.1841354999924,None,617.1842506999965,None,"[-0.378, -0.136]","[0.07, 0.393]","[0.304, -0.26]","[-0.2, 0.346]","[0.399, -0.003]","[-0.203, -0.347]","[-0.377, 0.138]","[0.306, 0.255]","[0.066, -0.395]",,19.117809700008365,12.685132700004033,15.669001600006595,"[-0.1712962962962963, 0.09537037037037037, -0.3416666666666667]","[0.2759259259259259, -0.43425925925925923, -0.17037037037037037]","[1, 1, 1]","[0, 0, 0]","[0, 0, 0]","[12.682943400010117, 15.666393999999855, 19.115835800010245]",0.0015205000090645626,19.117247100002714,['A1'],['B1'],['C3'],['blue'],['yellow'],['salmon'],637.9167650000018,None,7.0,1.9968721000041114,637.9167650000018,None,640.000007900002,None,10.0,3.0317589000042062,643.0333306999964,None,10.0,3.2654837999871233,646.3168325000006,None,10.0,2.9152052999997977,<function functionImportanceA at 0x00000181D0355840>,<function functionImportanceC at 0x0000018180875158>,<function functionImportanceB at 0x0000018180875598>,,,1.0,3.280991899999208,7.0,2.9974469000007957,3.0,3.0317589000042062,<function functiondiffB at 0x00000181808758C8>,<function functiondiffA at 0x0000018180875268>,<function functiondiffC at 0x0000018180875950>,,,,,618.316700299998,652.2331725999975,None,649.2164581999969,None,655.5331785000017,None,009,001,2022_Jun_14_1636,2leo,2021.2.3,59.97623741882167,
3,13,Plan a romantic date this weekend,Stimuli/13A1.jpg,Stimuli/13A2.jpg,Stimuli/13A3.jpg,Stimuli/13B1.jpg,Stimuli/13B2.jpg,Stimuli/13B3.jpg,Stimuli/13C1.jpg,Stimuli/13C2.jpg,Stimuli/13C3.jpg,,,,,0,6,6,13,,,,,,,,657.566321499995,None,658.5661264999944,None,664.5661196000001,None,"[-0.203, -0.347]","[-0.2, 0.346]","[0.399, -0.003]","[0.066, -0.395]","[-0.377, 0.138]","[0.306, 0.255]","[0.304, -0.26]","[-0.378, -0.136]","[0.07, 0.393]",,27.54809640000167,22.39843169999949,24.148518400004832,"[-0.3314814814814815, 0.26666666666666666, 0.3435185185185185]","[0.075, -0.20185185185185187, -0.06666666666666667]","[1, 1, 1]","[0, 0, 0]","[0, 0, 0]","[22.389067800002522, 24.139024100004463, 27.5389223999955]",0.00853330000245478,27.547214399994118,['A3'],['B2'],['C1'],['salmon'],['blue'],['yellow'],693.7819457000005,None,7.0,2.3300480999896536,693.7819457000005,None,703.1818716999987,None,2.0,2.5818549999967217,699.548667199997,None,8.0,3.614987699998892,696.2320603999979,None,7.0,3.347886400006246,<function functionImportanceB at 0x00000181808756A8>,<function functionImportanceC at 0x0000018180875AE8>,<function functionImportanceA at 0x0000018180875048>,,,-0.0,2.7309855000057723,2.0,3.9644798999943305,4.0,2.5818549999967217,<function functiondiffB at 0x0000018180875488>,<function functiondiffC at 0x0000018180875D08>,<function functiondiffA at 0x00000181D0355730>,,,,,665.7594102000003,713.7814765999938,None,705.7650486000057,None,709.731543899994,None,009,001,2022_Jun_14_1636,2leo,2021.2.3,59.97623741882167,
3,25,Plan how you want to read a book in your free time ,Stimuli/25A1.jpg,Stimuli/25A2.jpg,Stimuli/25A3.jpg,Stimuli/25B1.jpg,Stimuli/25B2.jpg,Stimuli/25B3.jpg,Stimuli/25C1.jpg,Stimuli/25C2.jpg,Stimuli/25C3.jpg,,,,,0,7,7,25,,,,,,,,716.0314451000013,None,717.0316717999958,None,723.0314915000054,None,"[-0.377, 0.138]","[0.306, 0.255]","[0.066, -0.395]","[-0.2, 0.346]","[0.399, -0.003]","[-0.203, -0.347]","[-0.378, -0.136]","[0.07, 0.393]","[0.304, -0.26]",,11.312848999994458,6.380133400001796,15.463235100003658,"[0.3333333333333333, -0.33055555555555555, -0.3296296296296296]","[-0.011111111111111112, 0.1527777777777778, -0.07314814814814814]","[1, 1, 1]","[0, 0, 0]","[0, 0, 0]","[6.378926500008674, 11.311998000004678, 15.461773200004245]",0.00043909999658353627,15.46219609999389,['A1'],['B2'],['C1'],['yellow'],['blue'],['salmon'],740.4304368000012,None,10.0,1.7971428000018932,740.4304368000012,None,742.2974200000026,None,10.0,2.5979193999955896,745.2162932999927,None,10.0,2.1816991000087,747.1478891000006,None,10.0,2.2484995999984676,<function functionImportanceA at 0x00000181D0355C80>,<function functionImportanceC at 0x0000018180875BF8>,<function functionImportanceB at 0x0000018180194EA0>,,,0.0,2.5984605999983614,0.0,2.3811940000014147,2.0,2.5979193999955896,<function functiondiffC at 0x0000018180875620>,<function functiondiffB at 0x0000018180194A60>,<function functiondiffA at 0x00000181801947B8>,,,,,724.4971442999959,757.4471328999934,None,755.0637695000041,None,749.4306813000003,None,009,001,2022_Jun_14_1636,2leo,2021.2.3,59.97623741882167,
3,17,Plan a day in Barcelona with a friend who is new to the city,Stimuli/17A1.jpg,Stimuli/17A2.jpg,Stimuli/17A3.jpg,Stimuli/17B1.jpg,Stimuli/17B2.jpg,Stimuli/17B3.jpg,Stimuli/17C1.jpg,Stimuli/17C2.jpg,Stimuli/17C3.jpg,,,,,0,8,8,17,,,,,,,,759.5636498999957,None,760.5635346999916,None,766.5635970000003,None,"[0.066, -0.395]","[0.306, 0.255]","[-0.377, 0.138]","[-0.203, -0.347]","[0.399, -0.003]","[-0.2, 0.346]","[0.304, -0.26]","[0.07, 0.393]","[-0.378, -0.136]",,7.996784000002663,16.463453000003938,11.763803900001221,"[0.26666666666666666, 0.30833333333333335, 0.35833333333333334]","[0.2601851851851852, -0.262037037037037, -0.06666666666666667]","[1, 1, 1]","[0, 0, 0]","[0, 0, 0]","[7.988801400002558, 11.755396599997766, 16.455212500004563]",0.007487599999876693,16.462539800006198,['A2'],['B2'],['C1'],['salmon'],['yellow'],['blue'],784.6460662000027,None,10.0,1.5972116999910213,784.6460662000027,None,786.3541910000058,None,6.0,3.6313165000028675,793.2128404999967,None,5.0,2.7653229999996256,789.9629513999971,None,4.0,3.2319681999942986,<function functionImportanceA at 0x00000181D03556A8>,<function functionImportanceB at 0x0000018180194F28>,<function functionImportanceC at 0x0000018180875F28>,,,3.0,4.631512099993415,1.0,2.9480502999940654,3.0,3.6313165000028675,<function functiondiffA at 0x0000018180194E18>,<function functiondiffB at 0x0000018180875EA0>,<function functiondiffC at 0x0000018180875378>,,,,,767.7054174999939,795.9626792999916,None,800.6126686999924,None,803.5625619999919,None,009,001,2022_Jun_14_1636,2leo,2021.2.3,59.97623741882167,
3,30,Plan your sport work out for tomorrow,Stimuli/30A1.jpg,Stimuli/30A2.jpg,Stimuli/30A3.jpg,Stimuli/30B1.jpg,Stimuli/30B2.jpg,Stimuli/30B3.jpg,Stimuli/30C1.jpg,Stimuli/30C2.jpg,Stimuli/30C3.jpg,,,,,0,9,9,30,,,,,,,,805.6290474999987,None,806.6290097000019,None,812.6289165999915,None,"[0.066, -0.395]","[0.306, 0.255]","[-0.377, 0.138]","[0.304, -0.26]","[0.07, 0.393]","[-0.378, -0.136]","[-0.203, -0.347]","[0.399, -0.003]","[-0.2, 0.346]",,8.573833599992213,17.857145100002526,15.5408088999975,"[0.23796296296296296, -0.1824074074074074, 0.2833333333333333]","[0.19537037037037036, 0.2935185185185185, -0.26851851851851855]","[1, 1, 1]","[0, 0, 0]","[0, 0, 0]","[8.568816999992123, 15.535149799994542, 17.851876999993692]",0.00448560000222642,17.856343999999808,['A2'],['B1'],['C3'],['salmon'],['blue'],['yellow'],832.1283717000042,None,9.0,1.7137631999939913,832.1283717000042,None,837.0282270000025,None,10.0,2.3653805000067223,833.9117015999946,None,1.0,3.09812249999959,839.461458699996,None,4.0,2.9652637999970466,<function functionImportanceC at 0x0000018180875D90>,<function functionImportanceA at 0x00000181D0355A60>,<function functionImportanceB at 0x00000181808759D8>,,,1.0,2.5482143000117503,1.0,2.981395100010559,3.0,2.3653805000067223,<function functiondiffC at 0x0000018180BEE1E0>,<function functiondiffB at 0x0000018180875A60>,<function functiondiffA at 0x0000018180875400>,,,,,813.7916006000014,850.8446394000057,None,847.8613549000002,None,842.3615032999951,None,009,001,2022_Jun_14_1636,2leo,2021.2.3,59.97623741882167,
3,31,Plan your order at a restaurant    ,Stimuli/31A1.jpg,Stimuli/31A2.jpg,Stimuli/31A3.jpg,Stimuli/31B1.jpg,Stimuli/31B2.jpg,Stimuli/31B3.jpg,Stimuli/31C1.jpg,Stimuli/31C2.jpg,Stimuli/31C3.jpg,,,,,0,10,10,31,,,,,,,,852.9110020999942,None,853.9111472999939,None,859.9109920000046,None,"[-0.377, 0.138]","[0.066, -0.395]","[0.306, 0.255]","[-0.378, -0.136]","[0.304, -0.26]","[0.07, 0.393]","[-0.2, 0.346]","[-0.203, -0.347]","[0.399, -0.003]",,13.314132500032429,19.314054900038172,23.13105250002991,"[-0.3388888888888889, -0.3074074074074074, 0.4287037037037037]","[0.0962962962962963, -0.0962962962962963, -0.03611111111111111]","[1, 1, 1]","[0, 0, 0]","[0, 0, 0]","[13.306544699997175, 19.30615819999366, 23.122816199989757]",0.007150100034778006,23.129904800036456,['A1'],['B1'],['C3'],['salmon'],['yellow'],['blue'],886.0936294999992,None,5.0,2.1307535000087228,886.0936294999992,None,894.2267407000036,None,1.0,4.081668200000422,890.5935664999997,None,10.0,2.2313859999994747,888.3135350999946,None,10.0,2.2477263000037055,<function functionImportanceB at 0x0000018180BEE510>,<function functionImportanceC at 0x0000018180BEE598>,<function functionImportanceA at 0x00000181D0279EA0>,,,3.0,3.548449599999003,7.0,4.397749800002202,7.0,4.081668200000422,<function functiondiffB at 0x00000181808752F0>,<function functiondiffA at 0x0000018180875C80>,<function functiondiffC at 0x0000018180BEE9D8>,,,,,862.5038524999982,901.6444555999915,None,896.8767525000003,None,904.8599667999952,None,009,001,2022_Jun_14_1636,2leo,2021.2.3,59.97623741882167,
3,15,Plan your own Pasta for lunch,Stimuli/15A1.jpg,Stimuli/15A2.jpg,Stimuli/15A3.jpg,Stimuli/15B1.jpg,Stimuli/15B2.jpg,Stimuli/15B3.jpg,Stimuli/15C1.jpg,Stimuli/15C2.jpg,Stimuli/15C3.jpg,,,,,0,11,11,15,,,,,,,,907.1262372000056,None,908.1263190000027,None,914.1263488999975,None,"[-0.2, 0.346]","[0.399, -0.003]","[-0.203, -0.347]","[-0.378, -0.136]","[0.07, 0.393]","[0.304, -0.26]","[-0.377, 0.138]","[0.306, 0.255]","[0.066, -0.395]",,3.7910938000277383,14.207502700024634,11.29146300003049,"[-0.20092592592592592, 0.07222222222222222, 0.028703703703703703]","[0.3731481481481482, -0.3925925925925926, 0.32222222222222224]","[1, 1, 1]","[0, 0, 0]","[0, 0, 0]","[3.790402800004813, 11.290235100008431, 14.20651610000641]",0.0001578000228619203,14.206635300026392,['A1'],['B2'],['C3'],['salmon'],['blue'],['yellow'],930.7257603000035,None,9.0,2.080016699997941,930.7257603000035,None,938.9111834999931,None,10.0,2.2483829999982845,933.5758242000011,None,10.0,3.7310434999963036,936.5923216999945,None,10.0,2.165075299999444,<function functionImportanceC at 0x0000018180BEE048>,<function functionImportanceB at 0x0000018180BEE0D0>,<function functionImportanceA at 0x0000018180BEE620>,,,0.0,1.6647787999972934,3.0,2.631322799992631,2.0,2.2483829999982845,<function functiondiffC at 0x0000018180BEEA60>,<function functiondiffB at 0x0000018180BEEBF8>,<function functiondiffA at 0x0000018180BEEC80>,,,,,916.0482170000032,948.6420324999926,None,945.991777400006,None,941.1922154000058,None,009,001,2022_Jun_14_1636,2leo,2021.2.3,59.97623741882167,
3,4,Plan a game night at your place,Stimuli/4A1.jpg,Stimuli/4A2.jpg,Stimuli/4A3.jpg,Stimuli/4B1.jpg,Stimuli/4B2.jpg,Stimuli/4B3.jpg,Stimuli/4C1.jpg,Stimuli/4C2.jpg,Stimuli/4C3.jpg,,,,,0,12,12,4,,,,,,,,949.8253050000058,None,950.8251758999977,None,956.8253631999978,None,"[0.306, 0.255]","[-0.377, 0.138]","[0.066, -0.395]","[0.07, 0.393]","[-0.378, -0.136]","[0.304, -0.26]","[0.399, -0.003]","[-0.2, 0.346]","[-0.203, -0.347]",,16.26503130007768,8.982347000070149,14.966977100077202,"[0.34444444444444444, 0.36018518518518516, 0.30185185185185187]","[-0.2657407407407407, -0.07777777777777778, 0.2740740740740741]","[1, 1, 1]","[0, 0, 0]","[0, 0, 0]","[8.977657700001146, 14.962115500005893, 16.26079739999841]",0.003827600070508197,16.26452650007559,['A1'],['B3'],['C1'],['yellow'],['salmon'],['blue'],976.9742946000042,None,8.0,2.0805584999907296,976.9742946000042,None,980.124238599994,None,2.0,4.798688000009861,985.2909609999915,None,10.0,4.13162289999309,988.0574589000025,None,6.0,2.982080000001588,<function functionImportanceA at 0x0000018180BEE268>,<function functionImportanceC at 0x0000018180BEEE18>,<function functionImportanceB at 0x0000018180BEED08>,,,1.0,3.5648038999934215,0.0,3.6643470999988494,10.0,4.798688000009861,<function functiondiffA at 0x0000018180875B70>,<function functiondiffB at 0x0000018180875730>,<function functiondiffC at 0x0000018180BEE840>,,,,,960.2451522000047,991.3741946999944,None,994.6409216000029,None,998.690801100005,None,009,001,2022_Jun_14_1636,2leo,2021.2.3,59.97623741882167,
3,2,Plan which ingredients you want to use for cooking dinner today,Stimuli/2A1.jpg,Stimuli/2A2.jpg,Stimuli/2A3.jpg,Stimuli/2B1.jpg,Stimuli/2B2.jpg,Stimuli/2B3.jpg,Stimuli/2C1.jpg,Stimuli/2C2.jpg,Stimuli/2C3.jpg,,,,,0,13,13,2,,,,,,,,1000.9905042000028,None,1001.9905110999971,None,1007.9905368000036,None,"[0.066, -0.395]","[-0.377, 0.138]","[0.306, 0.255]","[-0.203, -0.347]","[-0.2, 0.346]","[0.399, -0.003]","[0.304, -0.26]","[-0.378, -0.136]","[0.07, 0.393]",,21.865336100148852,21.21798520014272,8.666422900147154,"[0.005555555555555556, -0.14814814814814814, 0.049074074074074076]","[0.3611111111111111, -0.2935185185185185, -0.3453703703703704]","[1, 1, 1]","[0, 0, 0]","[0, 0, 0]","[8.654986800000188, 21.206956500012893, 21.854528600000776]",0.010278600151650608,21.864841000147862,['A1'],['B1'],['C3'],['blue'],['salmon'],['yellow'],1036.4894963999977,None,6.0,1.964183599993703,1036.4894963999977,None,1049.0561450999958,None,7.0,5.198593699999037,1039.1747792999959,None,10.0,3.381533500010846,1045.2259090000007,None,4.0,5.998323400010122,<function functionImportanceC at 0x0000018180BEED90>,<function functionImportanceB at 0x00000181808757B8>,<function functionImportanceA at 0x0000018180875510>,,,8.0,6.131028000003425,7.0,5.764659699998447,0.0,5.198593699999037,<function functiondiffA at 0x0000018180BEE6A8>,<function functiondiffB at 0x0000018180BEE950>,<function functiondiffC at 0x0000018180FFF7B8>,,,,,1014.168757899999,1053.4224418999947,None,1060.1391785000014,None,1065.2222609000019,None,009,001,2022_Jun_14_1636,2leo,2021.2.3,59.97623741882167,
3,32,Plan how you want to relax after a workday,Stimuli/32A1.jpg,Stimuli/32A2.jpg,Stimuli/32A3.jpg,Stimuli/32B1.jpg,Stimuli/32B2.jpg,Stimuli/32B3.jpg,Stimuli/32C1.jpg,Stimuli/32C2.jpg,Stimuli/32C3.jpg,,,,,0,14,14,32,,,,,,,,1067.1220436000003,None,1068.1222087999922,None,1074.1220859000023,None,"[0.399, -0.003]","[-0.2, 0.346]","[-0.203, -0.347]","[0.306, 0.255]","[-0.377, 0.138]","[0.066, -0.395]","[0.07, 0.393]","[-0.378, -0.136]","[0.304, -0.26]",,12.70151220005937,8.751630900063901,17.135118000063812,"[0.23703703703703705, 0.36944444444444446, 0.35]","[0.18796296296296297, 0.03796296296296296, -0.18888888888888888]","[1, 1, 1]","[0, 0, 0]","[0, 0, 0]","[8.739156999989063, 12.689327499989304, 17.122228399995947]",0.011776800063671544,17.13394510006765,['A1'],['B1'],['C3'],['blue'],['salmon'],['yellow'],1094.804563400001,None,10.0,1.7638359000120545,1094.804563400001,None,1106.0712086999993,None,10.0,3.7317534999892814,1102.804621999996,None,5.0,2.1152432999951998,1097.5552441000036,None,8.0,6.131277099993895,<function functionImportanceB at 0x0000018180FFF0D0>,<function functionImportanceC at 0x0000018180FFF598>,<function functionImportanceA at 0x00000181808751E0>,,,0.0,2.2480773999996018,-0.0,4.447571299999254,2.0,3.7317534999892814,<function functiondiffB at 0x0000018180BEEEA0>,<function functiondiffC at 0x0000018180FFF378>,<function functiondiffA at 0x0000018180BEEB70>,,,,,1077.2147183000052,1116.6043692999956,None,1108.8044609999924,None,1113.1044254000008,None,009,001,2022_Jun_14_1636,2leo,2021.2.3,59.97623741882167,
3,20,Plan a tea party with your friends,Stimuli/20A1.jpg,Stimuli/20A2.jpg,Stimuli/20A3.jpg,Stimuli/20B1.jpg,Stimuli/20B2.jpg,Stimuli/20B3.jpg,Stimuli/20C1.jpg,Stimuli/20C2.jpg,Stimuli/20C3.jpg,,,,,0,15,15,20,,,,,,,,1122.7206883000035,None,1123.7207280000002,None,1129.7206427000056,None,"[0.399, -0.003]","[-0.2, 0.346]","[-0.203, -0.347]","[0.07, 0.393]","[-0.378, -0.136]","[0.304, -0.26]","[0.306, 0.255]","[-0.377, 0.138]","[0.066, -0.395]",,16.625774400075898,9.14309100007813,20.961304300071788,"[0.03148148148148148, 0.31296296296296294]","[0.33611111111111114, 0.06296296296296296]","[1, 1]","[0, 0]","[0, 0]","[9.140470700003789, 16.623419299998204]",0.0019248000753577799,20.958783900074195,['A1'],['B1'],['C3'],['yellow'],['salmon'],['blue'],1154.7531407999923,None,6.0,2.3292836000036914,1154.7531407999923,None,1157.2199701999925,None,4.0,2.74783639999805,1159.9032224999974,None,7.0,5.948575500005973,1168.3363536999968,None,10.0,5.031528399995295,<function functionImportanceA at 0x0000018180FFF268>,<function functionImportanceC at 0x0000018180FFFE18>,<function functionImportanceB at 0x0000018180FFFEA0>,,,7.0,3.4145882000011625,-0.0,2.9979342000006,3.0,2.74783639999805,<function functiondiffA at 0x0000018180FFFB70>,<function functiondiffB at 0x0000018180FFFBF8>,<function functiondiffC at 0x0000018180BEE488>,,,,,1133.330099400002,1170.903073900001,None,1174.8861478000035,None,1177.3526130999962,None,009,001,2022_Jun_14_1636,2leo,2021.2.3,59.97623741882167,
3,34,Plan what car you want to buy,Stimuli/34A1.jpg,Stimuli/34A2.jpg,Stimuli/34A3.jpg,Stimuli/34B1.jpg,Stimuli/34B2.jpg,Stimuli/34B3.jpg,Stimuli/34C1.jpg,Stimuli/34C2.jpg,Stimuli/34C3.jpg,,,,,0,16,16,34,,,,,,,,1179.2357335999986,None,1180.235741700002,None,1186.2359182999935,None,"[0.07, 0.393]","[0.304, -0.26]","[-0.378, -0.136]","[0.399, -0.003]","[-0.203, -0.347]","[-0.2, 0.346]","[0.306, 0.255]","[0.066, -0.395]","[-0.377, 0.138]",,18.464688000065507,10.931869100066251,16.348782400076743,"[0.4703703703703704, 0.12777777777777777, 0.09814814814814815]","[-0.05462962962962963, -0.32222222222222224, 0.39351851851851855]","[1, 1, 1]","[0, 0, 0]","[0, 0, 0]","[10.928943299993989, 16.34554589999607, 18.46206049999455]",0.002076900069369003,18.46406260007643,['A1'],['B1'],['C2'],['blue'],['salmon'],['yellow'],1208.3017523000017,None,10.0,1.6635668000089936,1208.3017523000017,None,1211.0545501000015,None,10.0,4.68123889999697,1217.2515640000056,None,8.0,2.8305048999900464,1215.7682621999993,None,2.0,2.4987339999934193,<function functionImportanceA at 0x0000018180FFF158>,<function functionImportanceB at 0x0000018180FFFD90>,<function functionImportanceC at 0x0000018180FFF9D8>,,,0.0,3.564764599999762,5.0,4.281093900004635,3.0,4.68123889999697,<function functiondiffA at 0x0000018180BEEF28>,<function functiondiffB at 0x0000018180BEE158>,<function functiondiffC at 0x0000018180FFF1E0>,,,,,1189.3736783000058,1220.401509000003,None,1223.9030575999932,None,1227.9514157999947,None,009,001,2022_Jun_14_1636,2leo,2021.2.3,59.97623741882167,
3,6,Plan your wedding,Stimuli/6A1.jpg,Stimuli/6A2.jpg,Stimuli/6A3.jpg,Stimuli/6B1.jpg,Stimuli/6B2.jpg,Stimuli/6B3.jpg,Stimuli/6C1.jpg,Stimuli/6C2.jpg,Stimuli/6C3.jpg,,,,,0,17,17,6,,,,,,,,1231.8010587000026,None,1232.8012077000021,None,1238.801023699998,None,"[0.07, 0.393]","[-0.378, -0.136]","[0.304, -0.26]","[0.399, -0.003]","[-0.2, 0.346]","[-0.203, -0.347]","[0.306, 0.255]","[-0.377, 0.138]","[0.066, -0.395]",,13.717072700121207,26.18695470012608,31.433261700120056,"[0.30462962962962964, 0.34629629629629627, -0.45925925925925926]","[-0.2490740740740741, -0.06296296296296296, 0.1037037037037037]","[1, 1, 1]","[0, 0, 0]","[0, 0, 0]","[13.710793499994907, 26.18050659999426, 31.42660170000454]",0.005626000129268505,31.432151000131853,['A3'],['B1'],['C2'],['blue'],['yellow'],['salmon'],1275.8832744999963,None,6.0,1.56368009999278,1275.8832744999963,None,1287.0025045999937,None,10.0,3.2817852000007406,1282.966340999992,None,3.0,4.0484065000055125,1279.1711836000031,None,10.0,4.214655199990375,<function functionImportanceB at 0x0000018180BEE2F0>,<function functionImportanceC at 0x00000181812A5158>,<function functionImportanceA at 0x0000018180FFF048>,,,0.0,2.8478908000106458,8.0,3.6643404999922495,7.0,3.2817852000007406,<function functiondiffC at 0x00000181812A5400>,<function functiondiffA at 0x0000018180FFF2F0>,<function functiondiffB at 0x0000018180FFFF28>,,,,,1243.9927591000014,1293.966408399996,None,1296.9162815000018,None,1289.4831283999956,None,009,001,2022_Jun_14_1636,2leo,2021.2.3,59.97623741882167,
3,40,Plan to see a sports event ,Stimuli/40A1.jpg,Stimuli/40A2.jpg,Stimuli/40A3.jpg,Stimuli/40B1.jpg,Stimuli/40B2.jpg,Stimuli/40B3.jpg,Stimuli/40C1.jpg,Stimuli/40C2.jpg,Stimuli/40C3.jpg,,,,,0,18,18,40,,,,,,,,1299.7173439000035,None,1300.7326215999929,None,1306.7328500000003,None,"[0.304, -0.26]","[0.07, 0.393]","[-0.378, -0.136]","[-0.203, -0.347]","[0.399, -0.003]","[-0.2, 0.346]","[0.066, -0.395]","[0.306, 0.255]","[-0.377, 0.138]",,30.1794857000059,11.397467100003269,17.246949200009112,"[0.44907407407407407, 0.33611111111111114, -0.35]","[-0.000925925925925926, 0.19166666666666668, -0.07314814814814814]","[1, 1, 1]","[0, 0, 0]","[0, 0, 0]","[11.388117200011038, 17.23732290000771, 30.17032660001132]",0.008561300011933781,30.1787350000086,['A3'],['B2'],['C2'],['yellow'],['salmon'],['blue'],1338.7316086999926,None,8.0,1.9635987999936333,1338.7316086999926,None,1343.8314811000018,None,8.0,3.0985578000108944,1346.9481588000053,None,4.0,1.9149954000022262,1340.9483539999928,None,10.0,2.9978847000020323,<function functionImportanceB at 0x00000181812A5730>,<function functionImportanceA at 0x00000181812A5D08>,<function functionImportanceC at 0x00000181812A51E0>,,,6.0,3.298040599998785,-0.0,4.714394299997366,3.0,3.0985578000108944,<function functiondiffC at 0x0000018180FFFA60>,<function functiondiffB at 0x0000018180BEE7B8>,<function functiondiffA at 0x0000018180194598>,,,,,1308.0786335000012,1357.9480142999964,None,1353.247921400005,None,1348.7982870999986,None,009,001,2022_Jun_14_1636,2leo,2021.2.3,59.97623741882167,
3,37,Plan your cleaning routine ,Stimuli/37A1.jpg,Stimuli/37A2.jpg,Stimuli/37A3.jpg,Stimuli/37B1.jpg,Stimuli/37B2.jpg,Stimuli/37B3.jpg,Stimuli/37C1.jpg,Stimuli/37C2.jpg,Stimuli/37C3.jpg,,,,,0,19,19,37,,,,,,,,1360.7643083000003,None,1361.7643180000014,None,1367.7643393000035,None,"[0.304, -0.26]","[0.07, 0.393]","[-0.378, -0.136]","[-0.203, -0.347]","[0.399, -0.003]","[-0.2, 0.346]","[0.066, -0.395]","[0.306, 0.255]","[-0.377, 0.138]",,23.054945900003077,14.838782099992386,22.088851099993917,"[-0.14074074074074075, 0.2222222222222222, 0.25462962962962965]","[-0.2935185185185185, 0.18981481481481483, -0.2222222222222222]","[1, 1, 1]","[0, 0, 0]","[0, 0, 0]","[14.826420700002927, 22.076185500001884, 23.042872699996224]",0.011635400005616248,23.05431619999581,['A1'],['B1'],['C2'],['yellow'],['blue'],['salmon'],1392.3969589000044,None,4.0,2.2639420999912545,1392.3969589000044,None,1394.7303371000016,None,7.0,4.998347100001411,1399.7300587999925,None,3.0,3.648422500002198,1403.413468800005,None,5.0,2.431979799992405,<function functionImportanceA at 0x0000018180FFF510>,<function functionImportanceC at 0x00000181812A5BF8>,<function functionImportanceB at 0x0000018180FFF6A8>,,,8.0,2.464986699997098,8.0,4.214306499998202,6.0,4.998347100001411,<function functiondiffB at 0x0000018180BEE8C8>,<function functiondiffC at 0x00000181812A52F0>,<function functiondiffA at 0x0000018180BEEAE8>,,,,,1368.8698745000002,1412.279787099993,None,1405.8300509999972,None,1410.0632036000025,None,009,001,2022_Jun_14_1636,2leo,2021.2.3,59.97623741882167,
3,43,Plan your dream house,Stimuli/43A1.jpg,Stimuli/43A2.jpg,Stimuli/43A3.jpg,Stimuli/43B1.jpg,Stimuli/43B2.jpg,Stimuli/43B3.jpg,Stimuli/43C1.jpg,Stimuli/43C2.jpg,Stimuli/43C3.jpg,,,,,0,20,20,43,,,,,,,,1414.2629320999986,None,1415.2630835000018,None,1421.263000699997,None,"[0.304, -0.26]","[-0.378, -0.136]","[0.07, 0.393]","[-0.203, -0.347]","[-0.2, 0.346]","[0.399, -0.003]","[0.066, -0.395]","[-0.377, 0.138]","[0.306, 0.255]",,15.478077199994004,19.911322599989944,7.01167059999716,"[0.03888888888888889, 0.05277777777777778, 0.3296296296296296]","[-0.35833333333333334, 0.36203703703703705, 0.062037037037037036]","[1, 1, 1]","[0, 0, 0]","[0, 0, 0]","[6.9961411000113, 15.462897700010217, 19.89588110000477]",0.014598499998101033,19.91013479999674,['A3'],['B3'],['C1'],['blue'],['yellow'],['salmon'],1442.7621742000047,None,8.0,1.3139923000126146,1442.7621742000047,None,1447.7792205000005,None,10.0,2.0315946000046097,1449.7955138999969,None,10.0,1.731768199999351,1444.129022699999,None,7.0,3.597996399999829,<function functionImportanceB at 0x00000181812A5598>,<function functionImportanceA at 0x00000181812A5620>,<function functionImportanceC at 0x00000181812A5840>,,,3.0,1.7648159000091255,3.0,3.081098299997393,-0.0,2.0315946000046097,<function functiondiffB at 0x0000018180BEE400>,<function functiondiffA at 0x0000018180BEE378>,<function functiondiffC at 0x0000018180875E18>,,,,,1422.3811557000008,1454.628735099992,None,1451.5285850999935,None,1456.412012899993,None,009,001,2022_Jun_14_1636,2leo,2021.2.3,59.97623741882167,
3,9,Plan a picnic with friends,Stimuli/9A1.jpg,Stimuli/9A2.jpg,Stimuli/9A3.jpg,Stimuli/9B1.jpg,Stimuli/9B2.jpg,Stimuli/9B3.jpg,Stimuli/9C1.jpg,Stimuli/9C2.jpg,Stimuli/9C3.jpg,,,,,0,21,21,9,,,,,,,,1458.0781737999932,None,1459.0784182999923,None,1465.0784961000027,None,"[0.066, -0.395]","[-0.377, 0.138]","[0.306, 0.255]","[-0.203, -0.347]","[-0.2, 0.346]","[0.399, -0.003]","[0.304, -0.26]","[-0.378, -0.136]","[0.07, 0.393]",,15.877891500116675,24.44461600012437,11.29509270012204,"[0.3648148148148148, 0.1537037037037037, -0.2759259259259259]","[-0.26666666666666666, -0.3388888888888889, 0.2824074074074074]","[1, 1, 1]","[0, 0, 0]","[0, 0, 0]","[11.290283000009367, 15.873602499996196, 24.43999280000571]",0.003869500127620995,24.443758800116484,['A1'],['B2'],['C1'],['salmon'],['yellow'],['blue'],1495.3607202999992,None,4.0,1.5971431999932975,1495.3607202999992,None,1498.5108634999924,None,10.0,3.9977467999997316,1502.510924000002,None,3.0,4.014913999999408,1506.3441011999967,None,4.0,3.8484671000042,<function functionImportanceA at 0x00000181812A5510>,<function functionImportanceC at 0x00000181812A5488>,<function functionImportanceB at 0x00000181812A5F28>,,,0.0,3.7462825999973575,8.0,3.364292899990687,3.0,3.9977467999997316,<function functiondiffB at 0x00000181812A57B8>,<function functiondiffC at 0x00000181812A5E18>,<function functiondiffA at 0x00000181812A5950>,,,,,1470.4548929000011,1516.0771223000047,None,1509.277262699994,None,1512.7604404000012,None,009,001,2022_Jun_14_1636,2leo,2021.2.3,59.97623741882167,
3,36,Plan your shopping for new clothing,Stimuli/36A1.jpg,Stimuli/36A2.jpg,Stimuli/36A3.jpg,Stimuli/36B1.jpg,Stimuli/36B2.jpg,Stimuli/36B3.jpg,Stimuli/36C1.jpg,Stimuli/36C2.jpg,Stimuli/36C3.jpg,,,,,0,22,22,36,,,,,,,,1518.8767555999948,None,1519.8770476999925,None,1525.8770723000052,None,"[-0.378, -0.136]","[0.304, -0.26]","[0.07, 0.393]","[-0.2, 0.346]","[-0.203, -0.347]","[0.399, -0.003]","[-0.377, 0.138]","[0.066, -0.395]","[0.306, 0.255]",,13.59023210000305,10.374272900007782,15.857668200012995,"[-0.16944444444444445, -0.31851851851851853, 0.03148148148148148]","[-0.28888888888888886, -0.15555555555555556, -0.3574074074074074]","[1, 1, 1]","[0, 0, 0]","[0, 0, 0]","[10.368842299998505, 13.585193299993989, 15.852006200002506]",0.004574200007482432,15.856527700001607,['A1'],['B2'],['C2'],['blue'],['salmon'],['yellow'],1543.376191599993,None,8.0,1.647263600010774,1543.376191599993,None,1547.5929069999984,None,10.0,2.582050099998014,1550.1926916999946,None,8.0,3.3487916000012774,1545.1096732000005,None,10.0,2.4311884000053396,<function functionImportanceB at 0x00000181812A59D8>,<function functionImportanceA at 0x00000181812A5B70>,<function functionImportanceC at 0x0000018180FFF400>,,,0.0,3.664425000009942,0.0,3.4316075000097044,3.0,2.582050099998014,<function functiondiffA at 0x0000018180BEE730>,<function functiondiffB at 0x0000018180FFF620>,<function functiondiffC at 0x00000181812A5268>,,,,,1527.0394581,1553.476238400006,None,1557.1592042999982,None,1560.5925674000027,None,009,001,2022_Jun_14_1636,2leo,2021.2.3,59.97623741882167,
3,38,Plan how you want to go for a run,Stimuli/38A1.jpg,Stimuli/38A2.jpg,Stimuli/38A3.jpg,Stimuli/38B1.jpg,Stimuli/38B2.jpg,Stimuli/38B3.jpg,Stimuli/38C1.jpg,Stimuli/38C2.jpg,Stimuli/38C3.jpg,,,,,0,23,23,38,,,,,,,,1562.4588095999934,None,1563.4592249999987,None,1569.4590879000025,None,"[0.399, -0.003]","[-0.2, 0.346]","[-0.203, -0.347]","[0.306, 0.255]","[-0.377, 0.138]","[0.066, -0.395]","[0.07, 0.393]","[-0.378, -0.136]","[0.304, -0.26]",,15.1428322000138,18.90969860002224,6.00995370002056,"[0.012962962962962963, -0.16944444444444445, 0.12222222222222222]","[0.39814814814814814, 0.3111111111111111, -0.35185185185185186]","[1, 1, 1]","[0, 0, 0]","[0, 0, 0]","[5.994839799997862, 15.12811249999504, 18.894651099995826]",0.01416260001133196,18.908618900022702,['A2'],['B3'],['C1'],['blue'],['salmon'],['yellow'],1590.0416982000024,None,7.0,3.313779699994484,1590.0416982000024,None,1593.4250787000055,None,8.0,3.297815300000366,1598.974996399993,None,10.0,2.66500609999639,1596.7250522999966,None,9.0,2.13209340001049,<function functionImportanceA at 0x0000018180FFF950>,<function functionImportanceB at 0x0000018181802AE8>,<function functionImportanceC at 0x0000018181802A60>,,,4.0,3.6980075999890687,8.0,3.181345999997575,-0.0,3.297815300000366,<function functiondiffA at 0x0000018180FFF840>,<function functiondiffC at 0x00000181812A5C80>,<function functiondiffB at 0x00000181812A5EA0>,,,,,1570.6637456000026,1601.5415553000057,None,1607.7914746000024,None,1605.274862899998,None,009,001,2022_Jun_14_1636,2leo,2021.2.3,59.97623741882167,
3,28,Plan a one-week camping trip in Spain,Stimuli/28A1.jpg,Stimuli/28A2.jpg,Stimuli/28A3.jpg,Stimuli/28B1.jpg,Stimuli/28B2.jpg,Stimuli/28B3.jpg,Stimuli/28C1.jpg,Stimuli/28C2.jpg,Stimuli/28C3.jpg,,,,,0,24,24,28,,,,,,,,1610.4910626000055,None,1611.491265699995,None,1617.4913063999993,None,"[0.399, -0.003]","[-0.203, -0.347]","[-0.2, 0.346]","[0.306, 0.255]","[0.066, -0.395]","[-0.377, 0.138]","[0.07, 0.393]","[0.304, -0.26]","[-0.378, -0.136]",,17.947102700025425,28.71361850001267,25.39844460002496,"[-0.1935185185185185, -0.001851851851851852, -0.30833333333333335]","[0.3101851851851852, 0.3675925925925926, 0.1824074074074074]","[1, 1, 1]","[0, 0, 0]","[0, 0, 0]","[17.930587900002138, 25.38164270001289, 28.696839800002635]",0.01590630001737736,28.712699800016708,['A3'],['B3'],['C1'],['blue'],['salmon'],['yellow'],1647.7901724999974,None,7.0,1.4805288999923505,1647.7901724999974,None,1649.3403705999954,None,7.0,4.414683700000751,1658.6564532000048,None,4.0,3.2319779000099516,1653.757128199999,None,5.0,4.865344799996819,<function functionImportanceA at 0x0000018181802510>,<function functionImportanceB at 0x0000018181802F28>,<function functionImportanceC at 0x0000018181802400>,,,2.0,1.648228799997014,5.0,2.7310543000057805,7.0,4.414683700000751,<function functiondiffC at 0x00000181812A5378>,<function functiondiffB at 0x00000181812A58C8>,<function functiondiffA at 0x00000181812A5AE8>,,,,,1618.608811099999,1667.6565087000054,None,1664.9067337000015,None,1661.873324100001,None,009,001,2022_Jun_14_1636,2leo,2021.2.3,59.97623741882167,
3,7,Plan your Sunday breakfast ,Stimuli/7A1.jpg,Stimuli/7A2.jpg,Stimuli/7A3.jpg,Stimuli/7B1.jpg,Stimuli/7B2.jpg,Stimuli/7B3.jpg,Stimuli/7C1.jpg,Stimuli/7C2.jpg,Stimuli/7C3.jpg,,,,,0,25,25,7,,,,,,,,1668.8228731999989,None,1669.8229677999916,None,1675.8229754000058,None,"[0.304, -0.26]","[-0.378, -0.136]","[0.07, 0.393]","[-0.203, -0.347]","[-0.2, 0.346]","[0.399, -0.003]","[0.066, -0.395]","[-0.377, 0.138]","[0.306, 0.255]",,8.339865800153348,11.639701000152854,14.190080100146588,"[0.01574074074074074, 0.38055555555555554, 0.3574074074074074]","[0.3925925925925926, 0.020370370370370372, 0.23796296296296296]","[1, 1, 1]","[0, 0, 0]","[0, 0, 0]","[8.326719199991203, 11.626303400000324, 14.176431699990644]",0.01253250015724916,14.188681900152005,['A3'],['B3'],['C3'],['salmon'],['blue'],['yellow'],1696.405494999999,None,9.0,1.5136856000026455,1696.405494999999,None,1708.7888027000008,None,8.0,4.015400899996166,1699.1737098000012,None,2.0,4.831664500001352,1704.6718938999984,None,8.0,4.1985065000044415,<function functionImportanceC at 0x00000181818022F0>,<function functionImportanceB at 0x0000018181802D90>,<function functionImportanceA at 0x00000181818021E0>,,,-0.0,3.130725099996198,-0.0,3.7479055000003427,3.0,4.015400899996166,<function functiondiffA at 0x00000181818020D0>,<function functiondiffB at 0x0000018181802620>,<function functiondiffC at 0x0000018181802378>,,,,,1681.764971800003,1711.5386915999989,None,1714.8720422000042,None,1718.3050974999933,None,009,001,2022_Jun_14_1636,2leo,2021.2.3,59.97623741882167,
3,44,Plan a party at your place,Stimuli/44A1.jpg,Stimuli/44A2.jpg,Stimuli/44A3.jpg,Stimuli/44B1.jpg,Stimuli/44B2.jpg,Stimuli/44B3.jpg,Stimuli/44C1.jpg,Stimuli/44C2.jpg,Stimuli/44C3.jpg,,,,,0,26,26,44,,,,,,,,1720.254638600003,None,1721.255260799997,None,1727.254999900004,None,"[0.306, 0.255]","[0.066, -0.395]","[-0.377, 0.138]","[0.07, 0.393]","[0.304, -0.26]","[-0.378, -0.136]","[0.399, -0.003]","[-0.203, -0.347]","[-0.2, 0.346]",,30.604303000014625,9.789098600012949,16.455297600012273,"[-0.4287037037037037, 0.33055555555555555, 0.13055555555555556]","[-0.12777777777777777, -0.004629629629629629, -0.31666666666666665]","[1, 1, 1]","[0, 0, 0]","[0, 0, 0]","[9.776492399993003, 16.44248179999704, 30.592082499992102]",0.011642300014500506,30.603721900013625,['A2'],['B3'],['C1'],['salmon'],['yellow'],['blue'],1759.4871204999945,None,5.0,1.313690900002257,1759.4871204999945,None,1760.9037134999962,None,9.0,2.2980057999957353,1763.2205386999995,None,4.0,2.4651040000026114,1765.736947700003,None,3.0,2.3817192999995314,<function functionImportanceA at 0x0000018181802840>,<function functionImportanceC at 0x0000018181802598>,<function functionImportanceB at 0x0000018181802B70>,,,8.0,2.630846800006111,2.0,3.281258200004231,2.0,2.2980057999957353,<function functiondiffB at 0x0000018181802BF8>,<function functiondiffA at 0x0000018181802730>,<function functiondiffC at 0x00000181812A5D90>,,,,,1728.4123196,1771.336995699996,None,1768.0372696999984,None,1773.9870823999954,None,009,001,2022_Jun_14_1636,2leo,2021.2.3,59.97623741882167,
3,0,Plan a barbecue,Stimuli/0A1.jpg,Stimuli/0A2.jpg,Stimuli/0A3.jpg,Stimuli/0B1.jpg,Stimuli/0B2.jpg,Stimuli/0B3.jpg,Stimuli/0C1.jpg,Stimuli/0C2.jpg,Stimuli/0C3.jpg,,,,,0,27,27,0,,,,,,,,1776.3033414999954,None,1777.3034469999984,None,1783.303526100004,None,"[0.306, 0.255]","[-0.377, 0.138]","[0.066, -0.395]","[0.07, 0.393]","[-0.378, -0.136]","[0.304, -0.26]","[0.399, -0.003]","[-0.2, 0.346]","[-0.203, -0.347]",,19.241678300037165,16.75892910003313,9.809039400046458,"[-0.15648148148148147, 0.01574074074074074, 0.22962962962962963]","[-0.29074074074074074, 0.3685185185185185, 0.2935185185185185]","[1, 1, 1]","[0, 0, 0]","[0, 0, 0]","[9.804304099990986, 16.7546497000003, 19.237659899998107]",0.003602800046792254,19.240962800045963,['A1'],['B1'],['C3'],['yellow'],['salmon'],['blue'],1805.469274499992,None,7.0,1.5799510000069859,1805.469274499992,None,1814.0025537000038,None,9.0,3.2482586999976775,1815.9191588999965,None,3.0,1.8150113000010606,1807.1194280000054,None,8.0,5.5329589000029955,<function functionImportanceB at 0x00000181823A4598>,<function functionImportanceA at 0x0000018181802D08>,<function functionImportanceC at 0x00000181823A41E0>,,,8.0,2.131585900002392,3.0,3.680948699999135,2.0,3.2482586999976775,<function functiondiffB at 0x00000181812A50D0>,<function functiondiffC at 0x00000181823A4950>,<function functiondiffA at 0x0000018181802268>,,,,,1785.7621450000006,1824.2691369999957,None,1817.719091699997,None,1821.4358470000006,None,009,001,2022_Jun_14_1636,2leo,2021.2.3,59.97623741882167,
3,18,Plan your Saturday night ,Stimuli/18A1.jpg,Stimuli/18A2.jpg,Stimuli/18A3.jpg,Stimuli/18B1.jpg,Stimuli/18B2.jpg,Stimuli/18B3.jpg,Stimuli/18C1.jpg,Stimuli/18C2.jpg,Stimuli/18C3.jpg,,,,,0,28,28,18,,,,,,,,1825.5187484999915,None,1826.5187519000028,None,1832.519029899995,None,"[0.066, -0.395]","[0.306, 0.255]","[-0.377, 0.138]","[0.304, -0.26]","[0.07, 0.393]","[-0.378, -0.136]","[-0.203, -0.347]","[0.399, -0.003]","[-0.2, 0.346]",,10.035833200003253,15.052389399992535,20.60242979999748,"[-0.38333333333333336, 0.021296296296296296, 0.46111111111111114]","[0.1, 0.3416666666666667, -0.03425925925925926]","[1, 1, 1]","[0, 0, 0]","[0, 0, 0]","[10.025111800001469, 15.041484000001219, 20.591245000003255]",0.010120699997060001,20.601315299994894,['A3'],['B2'],['C2'],['salmon'],['yellow'],['blue'],1854.7013083999918,None,8.0,1.7302347000077134,1854.7013083999918,None,1865.817892399995,None,9.0,4.631735300004948,1856.5016241999983,None,2.0,2.4144484999997076,1858.9014998000057,None,9.0,6.8317763000086416,<function functionImportanceC at 0x00000181823A48C8>,<function functionImportanceB at 0x00000181823A42F0>,<function functionImportanceA at 0x00000181823A40D0>,,,7.0,2.848278000004939,8.0,1.4146803000039654,2.0,4.631735300004948,<function functiondiffC at 0x00000181823A49D8>,<function functiondiffA at 0x00000181823A4378>,<function functiondiffB at 0x00000181823A4AE8>,,,,,1833.626005099999,1873.650979900005,None,1876.501047800004,None,1870.401096200003,None,009,001,2022_Jun_14_1636,2leo,2021.2.3,59.97623741882167,
3,1,Plan how to study for an exam,Stimuli/1A1.jpg,Stimuli/1A2.jpg,Stimuli/1A3.jpg,Stimuli/1B1.jpg,Stimuli/1B2.jpg,Stimuli/1B3.jpg,Stimuli/1C1.jpg,Stimuli/1C2.jpg,Stimuli/1C3.jpg,,,,,0,29,29,1,,,,,,,,1877.4506923000008,None,1878.450830200003,None,1884.4509347999992,None,"[-0.2, 0.346]","[0.399, -0.003]","[-0.203, -0.347]","[-0.378, -0.136]","[0.07, 0.393]","[0.304, -0.26]","[-0.377, 0.138]","[0.306, 0.255]","[0.066, -0.395]",,11.295429899997544,5.645678500004578,2.479307000001427,"[-0.375, -0.38796296296296295, 0.38055555555555554]","[0.1361111111111111, -0.16666666666666666, -0.005555555555555556]","[1, 1, 1]","[0, 0, 0]","[0, 0, 0]","[2.4635243999946397, 5.630138399996213, 11.280038199998671]",0.014876400004141033,11.294695100004901,['A2'],['B1'],['C1'],['salmon'],['yellow'],['blue'],1897.2999767000001,None,10.0,1.4638572999974713,1897.2999767000001,None,1902.867057800002,None,4.0,3.015086400002474,1900.9512781999947,None,10.0,1.8648873999918578,1898.8336587999947,None,10.0,2.131245399999898,<function functionImportanceB at 0x00000181823A4D90>,<function functionImportanceC at 0x00000181823A4B70>,<function functionImportanceA at 0x00000181823A4C80>,,,2.0,2.2146923999971477,0.0,2.1819813000038266,-0.0,3.015086400002474,<function functiondiffC at 0x00000181818026A8>,<function functiondiffB at 0x0000018181802950>,<function functiondiffA at 0x0000018181802E18>,,,,,1885.5359920000046,1910.9668061999982,None,1908.766770599992,None,1905.8502532999992,None,009,001,2022_Jun_14_1636,2leo,2021.2.3,59.97623741882167,
3,27,Plan what festival to visit with your friends,Stimuli/27A1.jpg,Stimuli/27A2.jpg,Stimuli/27A3.jpg,Stimuli/27B1.jpg,Stimuli/27B2.jpg,Stimuli/27B3.jpg,Stimuli/27C1.jpg,Stimuli/27C2.jpg,Stimuli/27C3.jpg,,,,,0,30,30,27,,,,,,,,1915.2000043000007,None,1916.2000709999993,None,1922.1997822999983,None,"[0.066, -0.395]","[0.306, 0.255]","[-0.377, 0.138]","[0.304, -0.26]","[0.07, 0.393]","[-0.378, -0.136]","[-0.203, -0.347]","[0.399, -0.003]","[-0.2, 0.346]",,19.869115800014697,10.452775500001735,16.336299000002327,"[0.009259259259259259, -0.13425925925925927, 0.025925925925925925]","[0.3111111111111111, -0.3101851851851852, -0.3351851851851852]","[1, 1, 1]","[0, 0, 0]","[0, 0, 0]","[10.441776200008462, 16.325094300002092, 19.85844180001004]",0.0102653000067221,19.868453300005058,['A1'],['B2'],['C1'],['blue'],['yellow'],['salmon'],1943.649048399995,None,9.0,1.396712200003094,1943.649048399995,None,1951.9822531999962,None,5.0,2.5151082999946084,1949.2323180999956,None,8.0,2.7486625000019558,1945.1158896999987,None,6.0,4.0977023000014015,<function functionImportanceB at 0x00000181823A4BF8>,<function functionImportanceC at 0x00000181823A4D08>,<function functionImportanceA at 0x00000181818029D8>,,,3.0,4.064597899996443,1.0,2.3648794000037014,2.0,2.5151082999946084,<function functiondiffC at 0x0000018181802488>,<function functiondiffA at 0x00000181823A4730>,<function functiondiffB at 0x00000181823A47B8>,,,,,1923.3055181999953,1958.082241199998,None,1962.1651925000042,None,1954.4988598999917,None,009,001,2022_Jun_14_1636,2leo,2021.2.3,59.97623741882167,
3,8,Plan the interior of your living-room ,Stimuli/8A1.jpg,Stimuli/8A2.jpg,Stimuli/8A3.jpg,Stimuli/8B1.jpg,Stimuli/8B2.jpg,Stimuli/8B3.jpg,Stimuli/8C1.jpg,Stimuli/8C2.jpg,Stimuli/8C3.jpg,,,,,0,31,31,8,,,,,,,,1964.0482155999925,None,1965.048679600004,None,1971.0486782999942,None,"[0.399, -0.003]","[-0.2, 0.346]","[-0.203, -0.347]","[0.306, 0.255]","[-0.377, 0.138]","[0.066, -0.395]","[0.07, 0.393]","[-0.378, -0.136]","[0.304, -0.26]",,25.37554720012122,13.359810400113929,21.176399500123807,"[-0.32592592592592595, 0.08055555555555556, 0.3731481481481482]","[0.14722222222222223, 0.38796296296296295, 0.04722222222222222]","[1, 1, 1]","[0, 0, 0]","[0, 0, 0]","[13.342639299997245, 21.15898079999897, 25.35885020000569]",0.01629290012351703,25.37499070011836,['A1'],['B2'],['C1'],['blue'],['salmon'],['yellow'],2001.613988099998,None,4.0,1.4312513999902876,2001.613988099998,None,2003.1142371000024,None,10.0,1.9636264000000665,2011.0654338000022,None,7.0,4.0809815999964485,2006.814202900001,None,4.0,3.998867899994366,<function functionImportanceA at 0x00000181812A5A60>,<function functionImportanceB at 0x0000018180FFF488>,<function functionImportanceC at 0x0000018180FFFC80>,,,7.0,2.1978476000076625,7.0,6.5976384000096004,3.0,1.9636264000000665,<function functiondiffB at 0x00000181823A4A60>,<function functiondiffA at 0x00000181823A4840>,<function functiondiffC at 0x00000181823A4620>,,,,,1975.7905504999944,2019.7971471999917,None,2013.6974456000025,None,2022.5637367000018,None,009,001,2022_Jun_14_1636,2leo,2021.2.3,59.97623741882167,
3,41,Plan how you want to have dinner tonight ,Stimuli/41A1.jpg,Stimuli/41A2.jpg,Stimuli/41A3.jpg,Stimuli/41B1.jpg,Stimuli/41B2.jpg,Stimuli/41B3.jpg,Stimuli/41C1.jpg,Stimuli/41C2.jpg,Stimuli/41C3.jpg,,,,,0,32,32,41,,,,,,,,2024.6465963999945,None,2025.6468558000051,None,2031.647151600002,None,"[0.399, -0.003]","[-0.203, -0.347]","[-0.2, 0.346]","[0.306, 0.255]","[0.066, -0.395]","[-0.377, 0.138]","[0.07, 0.393]","[0.304, -0.26]","[-0.378, -0.136]",,7.381387700006599,11.632234400007292,16.564971400002833,"[-0.12777777777777777, 0.325, 0.14074074074074075]","[-0.27870370370370373, 0.24074074074074073, 0.325]","[1, 1, 1]","[0, 0, 0]","[0, 0, 0]","[7.371521199995186, 11.622191000002204, 16.55465489999915]",0.009355300004244782,16.563846400007606,['A2'],['B1'],['C1'],['salmon'],['yellow'],['blue'],2050.0462883,None,10.0,1.9969050000072457,2050.0462883,None,2059.1294645000016,None,5.0,2.9813176000025123,2055.3794501999946,None,10.0,3.964840100001311,2052.163062899999,None,10.0,2.9977610999922035,<function functionImportanceB at 0x00000181827DA488>,<function functionImportanceC at 0x00000181827DA0D0>,<function functionImportanceA at 0x0000018180FFFD08>,,,3.0,3.381226500001503,0.0,2.7980452999909176,-0.0,2.9813176000025123,<function functiondiffB at 0x00000181823A4268>,<function functiondiffA at 0x00000181823A4510>,<function functiondiffC at 0x00000181827DAA60>,,,,,2033.0086931999977,2064.8959756999975,None,2062.0810726000054,None,2068.329309199995,None,009,001,2022_Jun_14_1636,2leo,2021.2.3,59.97623741882167,
3,19,Plan how you want your garden to look like,Stimuli/19A1.jpg,Stimuli/19A2.jpg,Stimuli/19A3.jpg,Stimuli/19B1.jpg,Stimuli/19B2.jpg,Stimuli/19B3.jpg,Stimuli/19C1.jpg,Stimuli/19C2.jpg,Stimuli/19C3.jpg,,,,,0,33,33,19,,,,,,,,2070.1454758000036,None,2071.1457120999985,None,2077.1456863000058,None,"[0.07, 0.393]","[-0.378, -0.136]","[0.304, -0.26]","[0.399, -0.003]","[-0.2, 0.346]","[-0.203, -0.347]","[0.306, 0.255]","[-0.377, 0.138]","[0.066, -0.395]",,7.949741500066011,14.783236000061152,18.466781200055266,"[0.011111111111111112, -0.15648148148148147, -0.3509259259259259]","[0.4027777777777778, -0.2657407407407407, 0.15462962962962962]","[1, 1, 1]","[0, 0, 0]","[0, 0, 0]","[7.944037399996887, 14.777082900007372, 18.460487300006207]",0.0052310000610305,18.465541800062056,['A1'],['B3'],['C2'],['yellow'],['salmon'],['blue'],2099.6781503999955,None,7.0,1.3469923000084236,2099.6781503999955,None,2109.8282461000053,None,2.0,2.0986826999869663,2102.4780405000056,None,5.0,4.514714200005983,2106.7141570999956,None,5.0,4.165124799998011,<function functionImportanceC at 0x00000181827DA8C8>,<function functionImportanceB at 0x00000181827DA9D8>,<function functionImportanceA at 0x00000181827DA158>,,,2.0,1.9312914999900386,5.0,2.48118180000165,4.0,2.0986826999869663,<function functiondiffC at 0x00000181823A4F28>,<function functiondiffB at 0x00000181823A4488>,<function functiondiffA at 0x00000181823A4158>,,,,,2080.7532266000053,2118.1113418000023,None,2115.8446498999983,None,2112.2614700999984,None,009,001,2022_Jun_14_1636,2leo,2021.2.3,59.97623741882167,
3,35,Plan how you want to do your grocery shopping ,Stimuli/35A1.jpg,Stimuli/35A2.jpg,Stimuli/35A3.jpg,Stimuli/35B1.jpg,Stimuli/35B2.jpg,Stimuli/35B3.jpg,Stimuli/35C1.jpg,Stimuli/35C2.jpg,Stimuli/35C3.jpg,,,,,0,34,34,35,,,,,,,,2119.5607865000056,None,2120.561118700003,None,2126.5611404999945,None,"[0.306, 0.255]","[-0.377, 0.138]","[0.066, -0.395]","[0.399, -0.003]","[-0.2, 0.346]","[-0.203, -0.347]","[0.07, 0.393]","[-0.378, -0.136]","[0.304, -0.26]",,20.245207400002982,16.46220059999905,5.629284499998903,"[-0.29907407407407405, -0.22870370370370371, 0.041666666666666664]","[-0.1, 0.4324074074074074, -0.4046296296296296]","[1, 1, 1]","[0, 0, 0]","[0, 0, 0]","[5.621034800002235, 16.454194100006134, 20.23738210000738]",0.0071893999993335456,20.24452089999977,['A3'],['B2'],['C2'],['yellow'],['blue'],['salmon'],2148.5101553999993,None,7.0,1.713534399998025,2148.5101553999993,None,2154.4103905999946,None,9.0,2.614978500001598,2157.0602198999986,None,10.0,2.1820971999986796,2150.393794200005,None,3.0,4.0812650000007125,<function functionImportanceB at 0x00000181827DA730>,<function functionImportanceA at 0x00000181827DA268>,<function functionImportanceC at 0x00000181827DA6A8>,,,0.0,1.7315211999957683,8.0,2.4312440000067,0.0,2.614978500001598,<function functiondiffC at 0x00000181827DAF28>,<function functiondiffA at 0x00000181827DAEA0>,<function functiondiffB at 0x00000181827DA400>,,,,,2127.7894290999975,2161.093559000001,None,2162.8601456000033,None,2159.1769941999955,None,009,001,2022_Jun_14_1636,2leo,2021.2.3,59.97623741882167,
3,14,Plan your own Pizza for dinner,Stimuli/14A1.jpg,Stimuli/14A2.jpg,Stimuli/14A3.jpg,Stimuli/14B1.jpg,Stimuli/14B2.jpg,Stimuli/14B3.jpg,Stimuli/14C1.jpg,Stimuli/14C2.jpg,Stimuli/14C3.jpg,,,,,0,35,35,14,,,,,,,,2164.7946880999953,None,2165.8098377999995,None,2171.809842200004,None,"[0.399, -0.003]","[-0.2, 0.346]","[-0.203, -0.347]","[0.07, 0.393]","[-0.378, -0.136]","[0.304, -0.26]","[0.306, 0.255]","[-0.377, 0.138]","[0.066, -0.395]",,10.33541359998344,12.668438899985631,4.919136599986814,"[-0.31296296296296294, -0.27314814814814814, -0.009259259259259259]","[0.11296296296296296, 0.33055555555555555, 0.3472222222222222]","[1, 1, 1]","[0, 0, 0]","[0, 0, 0]","[4.916383099989616, 10.333196799998404, 12.666055299996515]",0.0017182999872602522,12.667621699991287,['A2'],['B1'],['C2'],['yellow'],['blue'],['salmon'],2186.109192399992,None,10.0,1.814355800001067,2186.109192399992,None,2190.559331299999,None,5.0,2.7152571999904467,2187.9761219999928,None,10.0,2.547664199999417,2193.3256776000053,None,10.0,2.4154379999963567,<function functionImportanceC at 0x0000018181802158>,<function functionImportanceA at 0x00000181812A56A8>,<function functionImportanceB at 0x0000018181802048>,,,3.0,1.9146904999943217,-0.0,2.8314208000083454,0.0,2.7152571999904467,<function functiondiffB at 0x00000181823A4048>,<function functiondiffC at 0x00000181823A4400>,<function functiondiffA at 0x00000181823A46A8>,,,,,2172.9570726999955,2200.159122600002,None,2195.7092608999956,None,2198.5425759999926,None,009,001,2022_Jun_14_1636,2leo,2021.2.3,59.97623741882167,
3,26,Plan how to wash one round of your laundry ,Stimuli/26A1.jpg,Stimuli/26A2.jpg,Stimuli/26A3.jpg,Stimuli/26B1.jpg,Stimuli/26B2.jpg,Stimuli/26B3.jpg,Stimuli/26C1.jpg,Stimuli/26C2.jpg,Stimuli/26C3.jpg,,,,,0,36,36,26,,,,,,,,2201.591948400004,None,2202.5922305999993,None,2208.592363799995,None,"[0.304, -0.26]","[0.07, 0.393]","[-0.378, -0.136]","[0.066, -0.395]","[0.306, 0.255]","[-0.377, 0.138]","[-0.203, -0.347]","[0.399, -0.003]","[-0.2, 0.346]",,25.21612220001407,19.199927500012564,8.333315900003072,"[-0.2, -0.32407407407407407, -0.001851851851851852]","[-0.3, 0.14722222222222223, 0.35185185185185186]","[1, 1, 1]","[0, 0, 0]","[0, 0, 0]","[8.323626700002933, 19.19031810000888, 25.20682070001203]",0.008769200008828193,25.215507400003844,['A2'],['B3'],['C1'],['blue'],['yellow'],['salmon'],2235.391260999997,None,8.0,1.7139764999883482,2235.391260999997,None,2237.1579690999934,None,7.0,3.7814020999940112,2242.8413541000045,None,5.0,2.6482925999880536,2240.974879500005,None,8.0,1.865416800006642,<function functionImportanceA at 0x00000181818027B8>,<function functionImportanceB at 0x0000018181802EA0>,<function functionImportanceC at 0x00000181827DAC80>,,,2.0,2.54774969999562,-0.0,2.1820236000057776,0.0,3.7814020999940112,<function functiondiffC at 0x00000181827DAAE8>,<function functiondiffB at 0x00000181827DA840>,<function functiondiffA at 0x00000181827DAD08>,,,,,2209.7010523999925,2250.3244698000053,None,2248.124575900001,None,2245.4912839000026,None,009,001,2022_Jun_14_1636,2leo,2021.2.3,59.97623741882167,
3,23,Plan a city trip,Stimuli/23A1.jpg,Stimuli/23A2.jpg,Stimuli/23A3.jpg,Stimuli/23B1.jpg,Stimuli/23B2.jpg,Stimuli/23B3.jpg,Stimuli/23C1.jpg,Stimuli/23C2.jpg,Stimuli/23C3.jpg,,,,,0,37,37,23,,,,,,,,2252.3905825999973,None,2253.3910716999962,None,2259.3908098999964,None,"[-0.377, 0.138]","[0.306, 0.255]","[0.066, -0.395]","[-0.378, -0.136]","[0.07, 0.393]","[0.304, -0.26]","[-0.2, 0.346]","[0.399, -0.003]","[-0.203, -0.347]",,15.919124300009571,8.302712600008817,11.536397500007297,"[-0.3111111111111111, 0.35185185185185186, 0.13796296296296295]","[-0.125, -0.025, -0.3537037037037037]","[1, 1, 1]","[0, 0, 0]","[0, 0, 0]","[8.291522200001054, 11.524831500006258, 15.90808680000191]",0.010448800006997772,15.91836229999899,['A3'],['B1'],['C2'],['yellow'],['salmon'],['blue'],2276.9236003999977,None,10.0,1.697098000004189,2276.9236003999977,None,2278.673685799993,None,10.0,2.580974199998309,2283.4235919000057,None,10.0,2.3818299999984447,2281.2901947999926,None,10.0,2.0820164999895496,<function functionImportanceA at 0x00000181827DAD90>,<function functionImportanceB at 0x00000181827DA510>,<function functionImportanceC at 0x00000181827DA7B8>,,,4.0,3.0978134000033606,7.0,3.181879799987655,2.0,2.580974199998309,<function functiondiffA at 0x00000181827DA048>,<function functiondiffC at 0x00000181827DA598>,<function functiondiffB at 0x00000181827DAE18>,,,,,2260.5302744999935,2285.7569871000014,None,2291.5731342999934,None,2288.8735251000035,None,009,001,2022_Jun_14_1636,2leo,2021.2.3,59.97623741882167,
3,3,Plan a movie night with a friend,Stimuli/3A1.jpg,Stimuli/3A2.jpg,Stimuli/3A3.jpg,Stimuli/3B1.jpg,Stimuli/3B2.jpg,Stimuli/3B3.jpg,Stimuli/3C1.jpg,Stimuli/3C2.jpg,Stimuli/3C3.jpg,,,,,0,38,38,3,,,,,,,,2294.272842599996,None,2295.2731834000006,None,2301.273306999996,None,"[-0.2, 0.346]","[-0.203, -0.347]","[0.399, -0.003]","[-0.378, -0.136]","[0.304, -0.26]","[0.07, 0.393]","[-0.377, 0.138]","[0.066, -0.395]","[0.306, 0.255]",,8.451368300055037,14.901629700063495,17.45182360005856,"[0.40370370370370373, 0.362962962962963, 0.275]","[0.032407407407407406, -0.18888888888888888, 0.28888888888888886]","[1, 1, 1]","[0, 0, 0]","[0, 0, 0]","[8.445089900007588, 14.89517670001078, 17.445073399998364]",0.005666900062351488,17.450392700062366,['A3'],['B2'],['C3'],['blue'],['salmon'],['yellow'],2322.7222838000016,None,10.0,1.6299425999895902,2322.7222838000016,None,2330.7558253000025,None,10.0,3.348499899992021,2328.7222960999934,None,10.0,3.7154658999934327,2325.1557406999927,None,10.0,2.5812814999953844,<function functionImportanceB at 0x0000018182C53BF8>,<function functionImportanceC at 0x0000018182C53B70>,<function functionImportanceA at 0x00000181827DA620>,,,10.0,1.9317495000141207,7.0,3.181275299997651,2.0,3.348499899992021,<function functiondiffB at 0x0000018182C53E18>,<function functiondiffA at 0x00000181818028C8>,<function functiondiffC at 0x0000018182C531E0>,,,,,2304.8098721999995,2337.2887623999995,None,2334.455533200002,None,2339.5718156999937,None,009,001,2022_Jun_14_1636,2leo,2021.2.3,59.97623741882167,
3,29,Plan a day in the mountains ,Stimuli/29A1.jpg,Stimuli/29A2.jpg,Stimuli/29A3.jpg,Stimuli/29B1.jpg,Stimuli/29B2.jpg,Stimuli/29B3.jpg,Stimuli/29C1.jpg,Stimuli/29C2.jpg,Stimuli/29C3.jpg,,,,,0,39,39,29,,,,,,,,2342.1717743000045,None,2343.1719980000053,None,2349.1719510999974,None,"[0.306, 0.255]","[0.066, -0.395]","[-0.377, 0.138]","[0.399, -0.003]","[-0.203, -0.347]","[-0.2, 0.346]","[0.07, 0.393]","[0.304, -0.26]","[-0.378, -0.136]",,4.8331512000004295,9.685965299999225,15.000054399992223,"[0.07592592592592592, 0.3212962962962963, 0.12962962962962962]","[-0.3277777777777778, -0.026851851851851852, 0.3351851851851852]","[1, 1, 1]","[0, 0, 0]","[0, 0, 0]","[4.823354899999686, 9.674651699999231, 14.9897992000042]",0.00924959999974817,14.998744099997566,['A2'],['B1'],['C1'],['blue'],['salmon'],['yellow'],2365.8379796999943,None,7.0,1.9308344999881228,2365.8379796999943,None,2370.821184200002,None,5.0,2.547975800000131,2373.387924399998,None,7.0,2.698310899999342,2367.8713932999963,None,10.0,2.9148007999901893,<function functionImportanceB at 0x0000018182C53AE8>,<function functionImportanceA at 0x0000018182C539D8>,<function functionImportanceC at 0x0000018182C53268>,,,-0.0,2.597924600006081,0.0,2.2149260000005597,3.0,2.547975800000131,<function functiondiffA at 0x00000181827DA2F0>,<function functiondiffC at 0x00000181827DAB70>,<function functiondiffB at 0x00000181827DABF8>,,,,,2350.364435299998,2376.0378715999977,None,2381.5877986999985,None,2378.6378544000036,None,009,001,2022_Jun_14_1636,2leo,2021.2.3,59.97623741882167,
3,33,Plan the items to decorate your Christmas tree,Stimuli/33A1.jpg,Stimuli/33A2.jpg,Stimuli/33A3.jpg,Stimuli/33B1.jpg,Stimuli/33B2.jpg,Stimuli/33B3.jpg,Stimuli/33C1.jpg,Stimuli/33C2.jpg,Stimuli/33C3.jpg,,,,,0,40,40,33,,,,,,,,2383.3209515000053,None,2384.3208152000007,None,2390.3208729000035,None,"[0.066, -0.395]","[0.306, 0.255]","[-0.377, 0.138]","[0.304, -0.26]","[0.07, 0.393]","[-0.378, -0.136]","[-0.203, -0.347]","[0.399, -0.003]","[-0.2, 0.346]",,8.124676300023566,16.291548300010618,17.05831930002023,"[0.2861111111111111, 0.03796296296296296, -0.18055555555555555]","[0.19722222222222222, 0.38333333333333336, 0.3638888888888889]","[1, 1, 1]","[0, 0, 0]","[0, 0, 0]","[8.10828909999691, 16.274869000000763, 17.041307299994514]",0.015820900021935813,17.05712750001112,['A2'],['B2'],['C3'],['blue'],['yellow'],['salmon'],2409.5035326999932,None,9.0,1.563370899995789,2409.5035326999932,None,2417.3868042999966,None,10.0,2.4315539999952307,2412.970203699995,None,10.0,3.898394999996526,2411.119918299999,None,10.0,1.7981605999957537,<function functionImportanceB at 0x0000018182C53F28>,<function functionImportanceC at 0x0000018182C53D90>,<function functionImportanceA at 0x0000018182C53510>,,,3.0,3.3141613000043435,7.0,2.3977427999925567,6.0,2.4315539999952307,<function functiondiffA at 0x0000018182C53158>,<function functiondiffB at 0x0000018182C53598>,<function functiondiffC at 0x0000018182C53D08>,,,,,2391.991527799997,2419.420133499996,None,2422.619983800003,None,2425.036666500004,None,009,001,2022_Jun_14_1636,2leo,2021.2.3,59.97623741882167,
3,11,Plan a hike in nature on a free day,Stimuli/11A1.jpg,Stimuli/11A2.jpg,Stimuli/11A3.jpg,Stimuli/11B1.jpg,Stimuli/11B2.jpg,Stimuli/11B3.jpg,Stimuli/11C1.jpg,Stimuli/11C2.jpg,Stimuli/11C3.jpg,,,,,0,41,41,11,,,,,,,,2427.569432499993,None,2428.569741500003,None,2434.569693600002,None,"[0.399, -0.003]","[-0.203, -0.347]","[-0.2, 0.346]","[0.07, 0.393]","[0.304, -0.26]","[-0.378, -0.136]","[0.306, 0.255]","[0.066, -0.395]","[-0.377, 0.138]",,8.683604000005289,11.783679800006212,17.618516100003035,"[-0.16203703703703703, 0.33055555555555555, 0.31203703703703706]","[-0.32222222222222224, -0.30648148148148147, 0.19166666666666668]","[1, 1, 1]","[0, 0, 0]","[0, 0, 0]","[8.682291200006148, 11.782134699999006, 17.61685240000952]",0.0007545999978901818,17.61618740000995,['A2'],['B2'],['C1'],['yellow'],['salmon'],['blue'],2453.8022921999946,None,7.0,1.4287544000108028,2453.8022921999946,None,2455.3025686000037,None,10.0,2.9479951999965124,2460.735296400002,None,2.0,2.081986200006213,2458.2691936000047,None,7.0,2.4487745000078576,<function functionImportanceA at 0x0000018182C53400>,<function functionImportanceB at 0x00000181827DA950>,<function functionImportanceC at 0x0000018181802C80>,,,2.0,2.031413500008057,6.0,2.748080300007132,4.0,2.9479951999965124,<function functiondiffC at 0x0000018182C53950>,<function functiondiffB at 0x0000018182C53378>,<function functiondiffA at 0x0000018182C532F0>,,,,,2435.7027906000003,2469.3020902999997,None,2466.535398699998,None,2462.8022311999957,None,009,001,2022_Jun_14_1636,2leo,2021.2.3,59.97623741882167,
3,39,Plan what kind of watch you want to buy,Stimuli/39A1.jpg,Stimuli/39A2.jpg,Stimuli/39A3.jpg,Stimuli/39B1.jpg,Stimuli/39B2.jpg,Stimuli/39B3.jpg,Stimuli/39C1.jpg,Stimuli/39C2.jpg,Stimuli/39C3.jpg,,,,,0,42,42,39,,,,,,,,2470.8524543999956,None,2471.8519122,None,2477.851875399996,None,"[0.066, -0.395]","[0.306, 0.255]","[-0.377, 0.138]","[0.304, -0.26]","[0.07, 0.393]","[-0.378, -0.136]","[-0.203, -0.347]","[0.399, -0.003]","[-0.2, 0.346]",,7.718766100006178,21.001677200009,17.90201540000271,"[-0.3425925925925926, -0.20092592592592592, 0.28425925925925927]","[0.10555555555555556, -0.2657407407407407, -0.2601851851851852]","[1, 1, 1]","[0, 0, 0]","[0, 0, 0]","[7.71643149999727, 17.89935669999977, 20.999221400008537]",0.0017462000105297193,21.000839600004838,['A3'],['B1'],['C1'],['yellow'],['salmon'],['blue'],2500.4843134999974,None,3.0,1.8468667999986792,2500.4843134999974,None,2502.4011768000055,None,10.0,2.1815108000009786,2504.634542999993,None,-0.0,2.548443600011524,2507.1510425000015,None,10.0,2.73209869999846,<function functionImportanceA at 0x00000181827DA1E0>,<function functionImportanceC at 0x0000018182F386A8>,<function functionImportanceB at 0x0000018182F38598>,,,0.0,2.3314806999987923,4.0,3.8648041999986162,5.0,2.1815108000009786,<function functiondiffC at 0x0000018182F388C8>,<function functiondiffA at 0x0000018182C538C8>,<function functiondiffB at 0x0000018182C53C80>,,,,,2478.999293899993,2513.051053300005,None,2515.400843299998,None,2509.8843003999937,None,009,001,2022_Jun_14_1636,2leo,2021.2.3,59.97623741882167,
3,24,Plan your Monday morning on a workday ,Stimuli/24A1.jpg,Stimuli/24A2.jpg,Stimuli/24A3.jpg,Stimuli/24B1.jpg,Stimuli/24B2.jpg,Stimuli/24B3.jpg,Stimuli/24C1.jpg,Stimuli/24C2.jpg,Stimuli/24C3.jpg,,,,,0,43,43,24,,,,,,,,2518.7848801999935,None,2519.7839155999973,None,2525.7840884000034,None,"[-0.203, -0.347]","[-0.2, 0.346]","[0.399, -0.003]","[0.066, -0.395]","[-0.377, 0.138]","[0.306, 0.255]","[0.304, -0.26]","[-0.378, -0.136]","[0.07, 0.393]",,17.51210620001075,22.445677200012142,14.379294900005334,"[0.2361111111111111, -0.16666666666666666, -0.287962962962963]","[-0.18333333333333332, 0.3037037037037037, 0.1925925925925926]","[1, 1, 1]","[0, 0, 0]","[0, 0, 0]","[14.363165000002482, 17.496417399990605, 22.429679799999576]",0.015171400009421632,22.44471140000678,['A2'],['B2'],['C1'],['salmon'],['blue'],['yellow'],2549.799715100002,None,7.0,1.5303344999992987,2549.799715100002,None,2555.2498491000006,None,5.0,4.598173599995789,2559.8828890000004,None,0.0,2.7652791000000434,2551.384768499993,None,3.0,3.848007200009306,<function functionImportanceB at 0x0000018182F38A60>,<function functionImportanceA at 0x0000018182F38950>,<function functionImportanceC at 0x0000018182F38840>,,,-0.0,1.9646345999935875,0.0,2.747756099997787,7.0,4.598173599995789,<function functiondiffB at 0x0000018182C53730>,<function functiondiffA at 0x0000018182C53840>,<function functiondiffC at 0x0000018182F38158>,,,,,2526.8847114999953,2565.399597800002,None,2562.632996100001,None,2567.3828977999947,None,009,001,2022_Jun_14_1636,2leo,2021.2.3,59.97623741882167,
3,22,Plan a beach day with your friends,Stimuli/22A1.jpg,Stimuli/22A2.jpg,Stimuli/22A3.jpg,Stimuli/22B1.jpg,Stimuli/22B2.jpg,Stimuli/22B3.jpg,Stimuli/22C1.jpg,Stimuli/22C2.jpg,Stimuli/22C3.jpg,,,,,0,44,44,22,,,,,,,,2569.499978299995,None,2570.4992824999936,None,2576.499158099992,None,"[0.306, 0.255]","[0.066, -0.395]","[-0.377, 0.138]","[0.07, 0.393]","[0.304, -0.26]","[-0.378, -0.136]","[0.399, -0.003]","[-0.203, -0.347]","[-0.2, 0.346]",,16.655084500016528,13.83895490001305,7.455881100016995,"[-0.13055555555555556, 0.03611111111111111, -0.3287037037037037]","[-0.26296296296296295, 0.3277777777777778, 0.15462962962962962]","[1, 1, 1]","[0, 0, 0]","[0, 0, 0]","[7.451504800003022, 13.834929100004956, 16.651146300006076]",0.0033598000154597685,16.654357900013565,['A3'],['B1'],['C2'],['blue'],['yellow'],['salmon'],2594.7650696000055,None,8.0,1.3472489999985555,2594.7650696000055,None,2596.1821252999944,None,6.0,2.481572299991967,2600.4318114999915,None,10.0,2.348421899994719,2598.6654424000008,None,9.0,1.7317877000023145,<function functionImportanceA at 0x0000018182F382F0>,<function functionImportanceB at 0x0000018182F38510>,<function functionImportanceC at 0x0000018182F38AE8>,,,1.0,3.047974000000977,2.0,1.7312294000003021,-0.0,2.481572299991967,<function functiondiffA at 0x0000018182C53488>,<function functiondiffB at 0x0000018182C53A60>,<function functiondiffC at 0x0000018182C530D0>,,,,,2577.6290651000018,2602.765262400004,None,2605.8317886000004,None,2607.581797299994,None,009,001,2022_Jun_14_1636,2leo,2021.2.3,59.97623741882167,
