Condition,N_Scenario,written_scenario,ImageA1,ImageA2,ImageA3,ImageB1,ImageB2,ImageB3,ImageC1,ImageC2,ImageC3,trials_2.thisRepN,trials_2.thisTrialN,trials_2.thisN,trials_2.thisIndex,trial.thisRepN,trial.thisTrialN,trial.thisN,trial.thisIndex,button_2.started,button_2.stopped,button_2.numClicks,button_2.timesOn,button_2.timesOff,text.started,text.stopped,fixationcross1_started,fixationcross1_stopped,Scenario_started,Scenario_stopped,fixationcross2_started,fixationcross2_stopped,A1pos,A2pos,A3pos,B1pos,B2pos,B3pos,C1pos,C2pos,C3pos,﻿Imagesdecision_started,decisiontimeA,decisiontimeB,decisiontimeC,mouse_x,mouse_y,mouse_leftButton,mouse_midButton,mouse_rightButton,mouse_time,mouse_started,mouse_stopped,clicked_optionA,clicked_optionB,clicked_optionC,colour_category_A,colour_category_B,colour_category_C,question_confidence_started,question_confidence_stopped,slider_confidence_response,slider_confidence_rt,slider_confidence_started,slider_confidence_stopped,question_valueA_started,question_valueA_stopped,slider_valueA_response,slider_valueA_rt,question_valueB_started,question_valueB_stopped,slider_valueB_response,slider_valueB_rt,question_valueC_started,question_valueC_stopped,slider_valueC_response,slider_valueC_rt,Importance_First,Importance_Second,Importance_Third,question_diff_started,question_diff_stopped,slider_diffC_response,slider_diffC_rt,slider_diffA_response,slider_diffA_rt,slider_diffB_response,slider_diffB_rt,diff_First,diff_Second,diff_Third,button_3_started,button_3_stopped,text_2_started,text_2_stopped,Imagesdecision_started,question_diffA_started,question_diffA_stopped,question_diffB_started,question_diffB_stopped,question_diffC_started,question_diffC_stopped,participant,session,date,expName,psychopyVersion,frameRate,
3,2,Plan a party to celebrate your birthday,Stimuli/2A1t.jpg,Stimuli/2A2t.jpg,Stimuli/2A3t.jpg,Stimuli/2B1t.jpg,Stimuli/2B2t.jpg,Stimuli/2B3t.jpg,Stimuli/2C1t.jpg,Stimuli/2C2t.jpg,Stimuli/2C3t.jpg,0,0,0,0,,,,,21.08608080000002,None,1,[6.77256060000002],[6.7725642000000335],21.08608080000002,None,89.9508787,None,90.9498922,None,96.9497608,None,"[-0.2, 0.346]","[0.399, -0.003]","[-0.203, -0.347]","[-0.377, 0.138]","[0.306, 0.255]","[0.066, -0.395]","[-0.378, -0.136]","[0.07, 0.393]","[0.304, -0.26]",101.01787390000001,55.3745266399996,59.42309363999959,3.5748950399996033,"[-0.32314814814814813, 0.09444444444444444, -0.15, -0.28703703703703703]","[-0.05648148148148148, 0.3768518518518518, -0.3138888888888889, 0.0824074074074074]","[1, 1, 1, 1]","[0, 0, 0, 0]","[0, 0, 0, 0]","[3.5625800000000254, 21.71202770000002, 55.362583400000005, 59.41099650000001]",0.01135563999957867,59.42230583999958,['A3'],['B1'],['C1'],['blue'],['salmon'],['yellow'],160.8977862,None,7.0,5.880363399999965,160.8977862,None,168.1311623,None,6.0,14.547231399999987,182.9697259,None,4.0,6.514917799999978,187.96395550000003,None,8.0,3.0152019000000223,<function functionImportanceAt at 0x00000163C2291E18>,<function functionImportanceBt at 0x00000163D1851268>,<function functionImportanceCt at 0x00000163D1851D08>,208.41342770000003,None,2.0,8.19726270000001,7.0,14.547231399999987,0.0,5.047747999999956,<function functiondiffCt at 0x00000163D257F950>,<function functiondiffAt at 0x00000163D257FBF8>,<function functiondiffBt at 0x00000163D257F400>,,,,,,,,,,,,23,001,2022_Jul_20_0902,2leo,2021.2.3,60.00153603932009,
3,3,Plan one week of vacation,Stimuli/3A1t.jpg,Stimuli/3A2t.jpg,Stimuli/3A3t.jpg,Stimuli/3B1t.jpg,Stimuli/3B2t.jpg,Stimuli/3B3t.jpg,Stimuli/3C1t.jpg,Stimuli/3C2t.jpg,Stimuli/3C3t.jpg,0,1,1,1,,,,,,,,,,,,212.52995740000003,None,213.5300399,None,219.52999380000003,None,"[-0.378, -0.136]","[0.304, -0.26]","[0.07, 0.393]","[-0.2, 0.346]","[-0.203, -0.347]","[0.399, -0.003]","[-0.377, 0.138]","[0.066, -0.395]","[0.306, 0.255]",225.6531805,16.92332477999929,10.523365779999324,13.607414779999317,"[-0.14907407407407408, 0.03518518518518519, 0.25]","[0.31203703703703706, -0.37037037037037035, -0.25]","[1, 1, 1]","[0, 0, 0]","[0, 0, 0]","[10.509510799999987, 13.593267700000013, 16.909687899999994]",0.013139879999300774,16.92248907999931,['A2'],['B1'],['C2'],['salmon'],['blue'],['yellow'],243.02907380000002,None,6.0,3.5651758999999856,243.02907380000002,None,256.26202350000005,None,8.0,11.26479610000007,248.36234720000002,None,8.0,7.646349799999996,267.04529649999995,None,9.0,11.598080299999992,<function functionImportanceBt at 0x00000163CF9E0EA0>,<function functionImportanceAt at 0x00000163BF1131E0>,<function functionImportanceCt at 0x00000163CEB71F28>,287.21147010000004,None,10.0,4.614426699999967,3.0,11.26479610000007,1.0,5.364868300000012,<function functiondiffAt at 0x00000163D257F730>,<function functiondiffBt at 0x00000163D257FC80>,<function functiondiffCt at 0x00000163D257F8C8>,,,,,,,,,,,,23,001,2022_Jul_20_0902,2leo,2021.2.3,60.00153603932009,
3,22,Plan a beach day with your friends,Stimuli/22A1.jpg,Stimuli/22A2.jpg,Stimuli/22A3.jpg,Stimuli/22B1.jpg,Stimuli/22B2.jpg,Stimuli/22B3.jpg,Stimuli/22C1.jpg,Stimuli/22C2.jpg,Stimuli/22C3.jpg,,,,,0,0,0,22,,,,,,,,370.26296819999993,None,371.2425575,None,377.2426078,None,"[-0.203, -0.347]","[-0.2, 0.346]","[0.399, -0.003]","[0.304, -0.26]","[-0.378, -0.136]","[0.07, 0.393]","[0.066, -0.395]","[-0.377, 0.138]","[0.306, 0.255]",,15.131957609999972,17.432061110000063,9.282637109999996,"[-0.32685185185185184, -0.2, 0.262037037037037]","[0.11851851851851852, 0.37592592592592594, -0.2638888888888889]","[1, 1, 1]","[0, 0, 0]","[0, 0, 0]","[9.272756700000059, 15.122595900000078, 17.42253340000002]",0.008866109999985383,17.431152010000005,['A2'],['B1'],['C2'],['blue'],['salmon'],['yellow'],396.3583334,None,4.0,3.5796174000000747,396.3583334,None,405.62489089999997,None,5.0,4.948061199999984,410.5748112,None,7.0,3.5481194000000187,400.05961949999994,None,7.0,5.54732469999999,<function functionImportanceC at 0x0000016384D0CBF8>,<function functionImportanceA at 0x00000163D257FF28>,<function functionImportanceB at 0x00000163D1851AE8>,,,9.0,4.948061199999984,5.0,5.013854999999921,10.0,4.648035900000082,<function functiondiffA at 0x00000163D257FA60>,<function functiondiffB at 0x00000163D1851D90>,<function functiondiffC at 0x00000163D18516A8>,290.91129509999996,None,290.91129509999996,None,378.45249739999997,414.0746202,None,419.1087715,None,423.77432580000004,None,23,001,2022_Jul_20_0902,2leo,2021.2.3,60.00153603932009,
3,0,Plan a barbecue,Stimuli/0A1.jpg,Stimuli/0A2.jpg,Stimuli/0A3.jpg,Stimuli/0B1.jpg,Stimuli/0B2.jpg,Stimuli/0B3.jpg,Stimuli/0C1.jpg,Stimuli/0C2.jpg,Stimuli/0C3.jpg,,,,,0,1,1,0,,,,,,,,428.25774490000003,None,429.2577231,None,435.2577053,None,"[-0.2, 0.346]","[-0.203, -0.347]","[0.399, -0.003]","[-0.378, -0.136]","[0.304, -0.26]","[0.07, 0.393]","[-0.377, 0.138]","[0.066, -0.395]","[0.306, 0.255]",,10.884688829999845,16.767808729999842,22.801445629999762,"[-0.14629629629629629, 0.25277777777777777, 0.25277777777777777]","[0.32407407407407407, -0.2759259259259259, 0.2675925925925926]","[1, 1, 1]","[0, 0, 0]","[0, 0, 0]","[10.875897999999893, 16.758617699999945, 22.791933099999937]",0.008376929999826643,22.800272829999813,['A1'],['B2'],['C3'],['blue'],['salmon'],['yellow'],461.02327779999996,None,7.0,2.4801525999999967,461.02327779999996,None,471.89061289999995,None,10.0,3.414448900000025,473.9731398,None,9.0,5.548525799999993,463.55679769999995,None,7.0,6.94749580000007,<function functionImportanceC at 0x0000016384D0CA60>,<function functionImportanceA at 0x0000016384D0C048>,<function functionImportanceB at 0x0000016384D0CF28>,,,3.0,3.414448900000025,10.0,3.2312539999999217,1.0,3.3142642999999907,<function functiondiffB at 0x0000016384D0CE18>,<function functiondiffA at 0x00000163D1851EA0>,<function functiondiffC at 0x00000163D257F510>,,,,,437.76161709999997,483.2562732,None,479.48979439999994,None,486.08958799999994,None,23,001,2022_Jul_20_0902,2leo,2021.2.3,60.00153603932009,
3,12,Plan the ingredients to mix yourself a cocktail,Stimuli/12A1.jpg,Stimuli/12A2.jpg,Stimuli/12A3.jpg,Stimuli/12B1.jpg,Stimuli/12B2.jpg,Stimuli/12B3.jpg,Stimuli/12C1.jpg,Stimuli/12C2.jpg,Stimuli/12C3.jpg,,,,,0,2,2,12,,,,,,,,489.95911809999996,None,490.8225893,None,496.82260669999994,None,"[-0.377, 0.138]","[0.306, 0.255]","[0.066, -0.395]","[-0.2, 0.346]","[0.399, -0.003]","[-0.203, -0.347]","[-0.378, -0.136]","[0.07, 0.393]","[0.304, -0.26]",,16.31893876999993,14.852627869999992,13.05306196999993,"[0.23796296296296296, 0.3490740740740741, -0.325]","[-0.22685185185185186, -0.023148148148148147, 0.06111111111111111]","[1, 1, 1]","[0, 0, 0]","[0, 0, 0]","[13.049878299999932, 14.849780299999907, 16.316440599999964]",0.0020883699999103555,16.31829806999997,['A1'],['B2'],['C3'],['yellow'],['salmon'],['blue'],514.8052407,None,8.0,5.196811199999956,514.8052407,None,520.1217321,None,7.0,9.664201700000035,535.9547997999999,None,9.0,3.3818869000000404,529.7383676,None,8.0,6.198270900000011,<function functionImportanceA at 0x0000016384D0C488>,<function functionImportanceC at 0x00000163D257F6A8>,<function functionImportanceB at 0x0000016384D0C9D8>,,,1.0,9.664201700000035,2.0,4.181097099999988,7.0,3.3811994999999797,<function functiondiffA at 0x0000016384D0CEA0>,<function functiondiffC at 0x00000163D257F488>,<function functiondiffB at 0x0000016384D0CB70>,,,,,498.00318219999997,539.3379792,None,548.0210686,None,543.5382645999999,None,23,001,2022_Jul_20_0902,2leo,2021.2.3,60.00153603932009,
3,33,Plan the items to decorate your Christmas tree,Stimuli/33A1.jpg,Stimuli/33A2.jpg,Stimuli/33A3.jpg,Stimuli/33B1.jpg,Stimuli/33B2.jpg,Stimuli/33B3.jpg,Stimuli/33C1.jpg,Stimuli/33C2.jpg,Stimuli/33C3.jpg,,,,,0,3,3,33,,,,,,,,550.9210083,None,551.9209367,None,557.9210095,None,"[0.066, -0.395]","[-0.377, 0.138]","[0.306, 0.255]","[-0.203, -0.347]","[-0.2, 0.346]","[0.399, -0.003]","[0.304, -0.26]","[-0.378, -0.136]","[0.07, 0.393]",,19.466993809999963,26.800431109999863,11.400845209999943,"[-0.36574074074074076, 0.2972222222222222, 0.33425925925925926]","[-0.1259259259259259, 0.287962962962963, -0.010185185185185186]","[1, 1, 1]","[0, 0, 0]","[0, 0, 0]","[11.387606899999923, 19.454180599999972, 26.78737269999999]",0.01221700999985842,26.799209609999934,['A3'],['B3'],['C2'],['salmon'],['blue'],['yellow'],586.9033466999999,None,10.0,2.713742899999943,586.9033466999999,None,595.720061,None,10.0,3.6152558,589.6700556,None,8.0,2.8641620999999304,592.5867736,None,10.0,2.615125300000045,<function functionImportanceB at 0x00000163D257F620>,<function functionImportanceC at 0x0000016384D0CD08>,<function functionImportanceA at 0x00000163D257F0D0>,,,6.0,3.6152558,9.0,4.213012000000049,9.0,3.3477854000000207,<function functiondiffA at 0x0000016384D0C8C8>,<function functiondiffC at 0x00000163821D7400>,<function functiondiffB at 0x0000016384D0C1E0>,,,,,559.6470502,598.9366219,None,605.8197355,None,603.0366728,None,23,001,2022_Jul_20_0902,2leo,2021.2.3,60.00153603932009,
3,11,Plan a hike in nature on a free day,Stimuli/11A1.jpg,Stimuli/11A2.jpg,Stimuli/11A3.jpg,Stimuli/11B1.jpg,Stimuli/11B2.jpg,Stimuli/11B3.jpg,Stimuli/11C1.jpg,Stimuli/11C2.jpg,Stimuli/11C3.jpg,,,,,0,4,4,11,,,,,,,,608.6863559,None,609.6862940999999,None,615.6864077,None,"[-0.377, 0.138]","[0.066, -0.395]","[0.306, 0.255]","[-0.2, 0.346]","[-0.203, -0.347]","[0.399, -0.003]","[-0.378, -0.136]","[0.304, -0.26]","[0.07, 0.393]",,10.346265169999924,11.680043969999929,15.996942469999908,"[-0.40555555555555556, -0.275, 0.2962962962962963]","[0.09722222222222222, -0.3388888888888889, -0.26296296296296295]","[1, 1, 1]","[0, 0, 0]","[0, 0, 0]","[10.338291899999945, 11.671719399999915, 15.98838969999997]",0.007539369999904011,15.995659069999988,['A1'],['B2'],['C2'],['yellow'],['salmon'],['blue'],633.3355066,None,9.0,2.3133467999999766,633.3355066,None,635.7189471,None,10.0,2.681203000000096,640.6856223,None,10.0,3.065340600000013,638.4188452,None,7.0,2.2485324000000446,<function functionImportanceA at 0x00000163D257F9D8>,<function functionImportanceC at 0x00000163821D7268>,<function functionImportanceB at 0x00000163821D7B70>,,,7.0,2.681203000000096,10.0,2.1145166000000017,7.0,3.0808861000000434,<function functiondiffB at 0x0000016384D0C730>,<function functiondiffC at 0x00000163821D77B8>,<function functiondiffA at 0x0000016384D0CC80>,,,,,616.8632809,649.4017286,None,643.7353181999999,None,646.8353308,None,23,001,2022_Jul_20_0902,2leo,2021.2.3,60.00153603932009,
3,13,Plan a romantic date this weekend,Stimuli/13A1.jpg,Stimuli/13A2.jpg,Stimuli/13A3.jpg,Stimuli/13B1.jpg,Stimuli/13B2.jpg,Stimuli/13B3.jpg,Stimuli/13C1.jpg,Stimuli/13C2.jpg,Stimuli/13C3.jpg,,,,,0,5,5,13,,,,,,,,651.0352495,None,652.0351796,None,658.0353006,None,"[0.304, -0.26]","[-0.378, -0.136]","[0.07, 0.393]","[-0.203, -0.347]","[-0.2, 0.346]","[0.399, -0.003]","[0.066, -0.395]","[-0.377, 0.138]","[0.306, 0.255]",,20.629546479999817,24.163410979999867,15.063896479999926,"[0.362962962962963, -0.287962962962963, -0.3055555555555556, -0.19722222222222222]","[0.275, -0.10277777777777777, -0.10648148148148148, -0.3490740740740741]","[1, 1, 1, 1]","[0, 0, 0, 0]","[0, 0, 0, 0]","[15.054907300000082, 17.68806820000009, 20.621162400000003, 24.154857400000083]",0.007885679999844797,24.16240857999992,['A2'],['B1'],['C3'],['blue'],['yellow'],['salmon'],683.9010069999999,None,6.0,2.9800257999999076,683.9010069999999,None,698.4671721999999,None,10.0,2.915185500000007,693.2507875,None,8.0,5.248474999999985,686.9507495,None,10.0,6.230869299999995,<function functionImportanceC at 0x00000163821D7D90>,<function functionImportanceB at 0x00000163821D78C8>,<function functionImportanceA at 0x00000163821D7EA0>,,,8.0,2.915185500000007,10.0,2.6979345999999396,5.0,2.6478478000000223,<function functiondiffA at 0x00000163821D76A8>,<function functiondiffC at 0x00000163821D7840>,<function functiondiffB at 0x00000163821D7488>,,,,,659.2611378,701.3672603,None,706.4671399,None,704.0838628,None,23,001,2022_Jul_20_0902,2leo,2021.2.3,60.00153603932009,
3,40,Plan to see a sports event ,Stimuli/40A1.jpg,Stimuli/40A2.jpg,Stimuli/40A3.jpg,Stimuli/40B1.jpg,Stimuli/40B2.jpg,Stimuli/40B3.jpg,Stimuli/40C1.jpg,Stimuli/40C2.jpg,Stimuli/40C3.jpg,,,,,0,6,6,40,,,,,,,,708.6168299999999,None,709.6170154,None,715.616892,None,"[-0.377, 0.138]","[0.066, -0.395]","[0.306, 0.255]","[-0.2, 0.346]","[-0.203, -0.347]","[0.399, -0.003]","[-0.378, -0.136]","[0.304, -0.26]","[0.07, 0.393]",,15.157554639999944,7.641113840000003,19.624491839999905,"[-0.16666666666666666, 0.3351851851851852, 0.31296296296296294]","[-0.35185185185185186, 0.2657407407407407, -0.19166666666666668]","[1, 1, 1]","[0, 0, 0]","[0, 0, 0]","[7.626331099999902, 15.142989599999964, 19.609521599999994]",0.013962839999976495,19.623278439999922,['A3'],['B2'],['C2'],['yellow'],['blue'],['salmon'],737.0662761,None,7.0,4.347290200000089,737.0662761,None,745.1827951,None,7.0,2.682021500000019,747.9994078999999,None,10.0,3.4321578000000272,741.4831202,None,5.0,3.664379100000019,<function functionImportanceC at 0x00000163821D7950>,<function functionImportanceA at 0x00000163821D7BF8>,<function functionImportanceB at 0x00000163821D7D08>,,,5.0,2.682021500000019,0.0,3.031192899999951,0.0,2.547893400000021,<function functiondiffA at 0x00000163D257FAE8>,<function functiondiffC at 0x0000016384D0CD90>,<function functiondiffB at 0x00000163821D7E18>,,,,,716.9734023,751.2826384,None,756.8831797,None,754.3325217,None,23,001,2022_Jul_20_0902,2leo,2021.2.3,60.00153603932009,
3,7,Plan your Sunday breakfast ,Stimuli/7A1.jpg,Stimuli/7A2.jpg,Stimuli/7A3.jpg,Stimuli/7B1.jpg,Stimuli/7B2.jpg,Stimuli/7B3.jpg,Stimuli/7C1.jpg,Stimuli/7C2.jpg,Stimuli/7C3.jpg,,,,,0,7,7,7,,,,,,,,758.9155504,None,759.9157094999999,None,765.9158224,None,"[-0.2, 0.346]","[-0.203, -0.347]","[0.399, -0.003]","[-0.378, -0.136]","[0.304, -0.26]","[0.07, 0.393]","[-0.377, 0.138]","[0.066, -0.395]","[0.306, 0.255]",,5.576965399999153,19.642750899999328,12.843208699999195,"[-0.19166666666666668, 0.01574074074074074, 0.13333333333333333]","[-0.2814814814814815, -0.3416666666666667, 0.38333333333333336]","[1, 1, 1]","[0, 0, 0]","[0, 0, 0]","[5.570502300000044, 12.83624020000002, 19.63590219999992]",0.005952299999307797,19.641637199999195,['A2'],['B3'],['C2'],['blue'],['salmon'],['yellow'],792.0815458,None,9.0,3.4804529000000457,792.0815458,None,805.0145903,None,9.0,4.348577900000009,797.5146540999999,None,8.0,7.581218000000035,808.8141527,None,5.0,3.298038199999837,<function functionImportanceB at 0x00000163821D7C80>,<function functionImportanceA at 0x00000163821D7158>,<function functionImportanceC at 0x00000163821D7048>,,,5.0,4.348577900000009,0.0,3.181056900000158,4.0,6.6475167000000965,<function functiondiffB at 0x00000163821D7620>,<function functiondiffC at 0x00000163821D7A60>,<function functiondiffA at 0x00000163D257FEA0>,,,,,771.9805789,820.9473355,None,811.5977659,None,817.9142549000001,None,23,001,2022_Jul_20_0902,2leo,2021.2.3,60.00153603932009,
3,19,Plan how you want your garden to look like,Stimuli/19A1.jpg,Stimuli/19A2.jpg,Stimuli/19A3.jpg,Stimuli/19B1.jpg,Stimuli/19B2.jpg,Stimuli/19B3.jpg,Stimuli/19C1.jpg,Stimuli/19C2.jpg,Stimuli/19C3.jpg,,,,,0,8,8,19,,,,,,,,823.1138913,None,824.1141032999999,None,830.1139479000001,None,"[-0.203, -0.347]","[0.399, -0.003]","[-0.2, 0.346]","[0.304, -0.26]","[0.07, 0.393]","[-0.378, -0.136]","[0.066, -0.395]","[0.306, 0.255]","[-0.377, 0.138]",,10.411658489999581,16.878425489999472,22.628520889999436,"[0.3685185185185185, 0.14351851851851852, 0.10833333333333334]","[0.005555555555555556, 0.30925925925925923, -0.3851851851851852]","[1, 1, 1]","[0, 0, 0]","[0, 0, 0]","[10.407305700000052, 16.873866500000076, 22.623779200000172]",0.0038027899995540793,22.627362989999483,['A2'],['B2'],['C1'],['yellow'],['salmon'],['blue'],857.0298089,None,6.0,2.9304167000000234,857.0298089,None,860.0964956999999,None,8.0,2.6314285000000837,867.6156278000001,None,5.0,4.281632700000046,864.1130255999999,None,8.0,3.748286999999891,<function functionImportanceA at 0x00000163821D79D8>,<function functionImportanceC at 0x00000163D257F598>,<function functionImportanceB at 0x00000163821D7598>,,,7.0,2.6314285000000837,3.0,6.1146733999999014,5.0,2.6811150000000907,<function functiondiffC at 0x0000016384D0C7B8>,<function functiondiffA at 0x0000016384D0C378>,<function functiondiffB at 0x0000016384D0C950>,,,,,833.9404795,876.4291352,None,882.8131778,None,871.0962983,None,23,001,2022_Jul_20_0902,2leo,2021.2.3,60.00153603932009,
3,35,Plan how you want to do your grocery shopping ,Stimuli/35A1.jpg,Stimuli/35A2.jpg,Stimuli/35A3.jpg,Stimuli/35B1.jpg,Stimuli/35B2.jpg,Stimuli/35B3.jpg,Stimuli/35C1.jpg,Stimuli/35C2.jpg,Stimuli/35C3.jpg,,,,,0,9,9,35,,,,,,,,884.7456017,None,885.7455878999999,None,891.7458156,None,"[0.306, 0.255]","[0.066, -0.395]","[-0.377, 0.138]","[0.399, -0.003]","[-0.203, -0.347]","[-0.2, 0.346]","[0.07, 0.393]","[0.304, -0.26]","[-0.378, -0.136]",,13.14008379000029,11.807053390000192,4.040662290000228,"[0.33425925925925926, 0.44907407407407407, 0.11296296296296296]","[-0.2740740740740741, -0.040740740740740744, -0.3685185185185185]","[1, 1, 1]","[0, 0, 0]","[0, 0, 0]","[4.03469680000012, 11.801471799999945, 13.134643300000107]",0.004906690000098024,13.139489790000198,['A2'],['B1'],['C2'],['blue'],['yellow'],['salmon'],906.6451110999999,None,10.0,2.0141833000000133,906.6451110999999,None,911.3453279999999,None,10.0,2.2815714000000753,913.7449268,None,10.0,1.714963900000157,908.7618952999999,None,10.0,2.5979282999999214,<function functionImportanceC at 0x00000163805188C8>,<function functionImportanceA at 0x00000163821D7510>,<function functionImportanceB at 0x00000163821D7378>,,,0.0,2.2815714000000753,0.0,2.664179600000125,3.0,2.8313697000000957,<function functiondiffA at 0x0000016384D0C6A8>,<function functiondiffC at 0x00000163821D71E0>,<function functiondiffB at 0x0000016384D0C268>,,,,,893.0265282999999,915.3449201000001,None,920.2616668000001,None,918.0282949,None,23,001,2022_Jul_20_0902,2leo,2021.2.3,60.00153603932009,
3,2,Plan which ingredients you want to use for cooking dinner today,Stimuli/2A1.jpg,Stimuli/2A2.jpg,Stimuli/2A3.jpg,Stimuli/2B1.jpg,Stimuli/2B2.jpg,Stimuli/2B3.jpg,Stimuli/2C1.jpg,Stimuli/2C2.jpg,Stimuli/2C3.jpg,,,,,0,10,10,2,,,,,,,,922.5946615,None,923.5949462000001,None,929.5946541000001,None,"[-0.203, -0.347]","[0.399, -0.003]","[-0.2, 0.346]","[0.066, -0.395]","[0.306, 0.255]","[-0.377, 0.138]","[0.304, -0.26]","[0.07, 0.393]","[-0.378, -0.136]",,17.48807800999907,9.421420509999052,6.538478409999016,"[-0.3527777777777778, 0.04351851851851852, -0.1962962962962963]","[-0.07962962962962963, -0.39814814814814814, 0.3453703703703704]","[1, 1, 1]","[0, 0, 0]","[0, 0, 0]","[6.533619799999997, 9.416992400000026, 17.483739900000046]",0.00374350999913986,17.487237409999125,['A3'],['B1'],['C3'],['salmon'],['yellow'],['blue'],953.6606485,None,8.0,1.8302542999999787,953.6606485,None,963.5438044,None,7.0,3.3648653999998714,969.1269018999999,None,9.0,8.164837199999965,956.1641772,None,9.0,6.88111600000002,<function functionImportanceC at 0x0000016380518400>,<function functionImportanceA at 0x00000163821D72F0>,<function functionImportanceB at 0x0000016380518488>,,,1.0,3.3648653999998714,5.0,3.597954399999935,-0.0,3.0808128000001034,<function functiondiffA at 0x0000016384D0C840>,<function functiondiffB at 0x0000016384D0CAE8>,<function functiondiffC at 0x0000016380518048>,,,,,935.7138176000001,974.3102848000001,None,978.4601998999999,None,980.8766198000001,None,23,001,2022_Jul_20_0902,2leo,2021.2.3,60.00153603932009,
3,1,Plan how to study for an exam,Stimuli/1A1.jpg,Stimuli/1A2.jpg,Stimuli/1A3.jpg,Stimuli/1B1.jpg,Stimuli/1B2.jpg,Stimuli/1B3.jpg,Stimuli/1C1.jpg,Stimuli/1C2.jpg,Stimuli/1C3.jpg,,,,,0,11,11,1,,,,,,,,982.5928621999999,None,983.5934193,None,989.5931951,None,"[0.304, -0.26]","[0.07, 0.393]","[-0.378, -0.136]","[0.066, -0.395]","[0.306, 0.255]","[-0.377, 0.138]","[-0.203, -0.347]","[0.399, -0.003]","[-0.2, 0.346]",,11.803272930000048,13.136981330000026,16.803488130000005,"[0.26851851851851855, -0.3925925925925926, 0.41759259259259257]","[-0.21944444444444444, 0.15185185185185185, 0.03148148148148148]","[1, 1, 1]","[0, 0, 0]","[0, 0, 0]","[11.800393700000086, 13.133686699999998, 16.79999410000005]",0.0023326299999553157,16.80235422999999,['A1'],['B3'],['C2'],['salmon'],['yellow'],['blue'],1008.0257025999999,None,10.0,3.3968740000000253,1008.0257025999999,None,1014.5422338000001,None,10.0,2.1483402000001206,1011.5593712,None,9.0,2.997408799999903,1016.6757949,None,7.0,2.4652375000000575,<function functionImportanceB at 0x0000016380518BF8>,<function functionImportanceA at 0x00000163805181E0>,<function functionImportanceC at 0x00000163805182F0>,,,2.0,2.1483402000001206,-0.0,2.814939699999968,1.0,2.781158400000095,<function functiondiffC at 0x00000163805187B8>,<function functiondiffA at 0x0000016380518158>,<function functiondiffB at 0x0000016380518E18>,,,,,990.7405294,1023.0921999,None,1025.9254926,None,1019.1087640000001,None,23,001,2022_Jul_20_0902,2leo,2021.2.3,60.00153603932009,
3,34,Plan what car you want to buy,Stimuli/34A1.jpg,Stimuli/34A2.jpg,Stimuli/34A3.jpg,Stimuli/34B1.jpg,Stimuli/34B2.jpg,Stimuli/34B3.jpg,Stimuli/34C1.jpg,Stimuli/34C2.jpg,Stimuli/34C3.jpg,,,,,0,12,12,34,,,,,,,,1028.2250478,None,1029.2255033,None,1035.2252808,None,"[-0.378, -0.136]","[0.304, -0.26]","[0.07, 0.393]","[-0.2, 0.346]","[-0.203, -0.347]","[0.399, -0.003]","[-0.377, 0.138]","[0.066, -0.395]","[0.306, 0.255]",,28.812854749999815,15.680226849999826,18.380491949999623,"[-0.13796296296296295, 0.25, 0.2361111111111111]","[0.3509259259259259, 0.2537037037037037, -0.21574074074074073]","[1, 1, 1]","[0, 0, 0]","[0, 0, 0]","[15.678584499999943, 18.37845100000004, 28.81139240000016]",0.0009643499997764593,28.812080749999723,['A2'],['B1'],['C3'],['salmon'],['blue'],['yellow'],1067.624177,None,6.0,2.963941499999919,1067.624177,None,1078.4406964,None,7.0,3.248866800000087,1074.8909509,None,10.0,3.4818113999999696,1070.6578457,None,8.0,3.26436230000013,<function functionImportanceC at 0x0000016380518378>,<function functionImportanceB at 0x0000016380518AE8>,<function functionImportanceA at 0x0000016380518950>,,,7.0,3.248866800000087,10.0,2.94796899999983,1.0,3.1642168000000765,<function functiondiffB at 0x0000016380518B70>,<function functiondiffA at 0x00000163821D7730>,<function functiondiffC at 0x00000163805189D8>,,,,,1038.3438048,1084.2088171999999,None,1080.9241324,None,1086.8237865,None,23,001,2022_Jul_20_0902,2leo,2021.2.3,60.00153603932009,
3,32,Plan how you want to relax after a workday,Stimuli/32A1.jpg,Stimuli/32A2.jpg,Stimuli/32A3.jpg,Stimuli/32B1.jpg,Stimuli/32B2.jpg,Stimuli/32B3.jpg,Stimuli/32C1.jpg,Stimuli/32C2.jpg,Stimuli/32C3.jpg,,,,,0,13,13,32,,,,,,,,1089.8400544,None,1090.8404802,None,1096.8402896,None,"[0.066, -0.395]","[-0.377, 0.138]","[0.306, 0.255]","[-0.203, -0.347]","[-0.2, 0.346]","[0.399, -0.003]","[0.304, -0.26]","[-0.378, -0.136]","[0.07, 0.393]",,10.506072069999618,11.906383969999524,16.6064904699997,"[-0.30462962962962964, 0.4046296296296296, 0.262037037037037]","[0.08796296296296297, 0.03333333333333333, -0.20185185185185187]","[1, 1, 1]","[0, 0, 0]","[0, 0, 0]","[10.500226200000043, 11.900166800000079, 16.600232900000037]",0.005328069999677609,16.605257769999525,['A2'],['B3'],['C1'],['yellow'],['blue'],['salmon'],1116.9563462,None,7.0,2.397104799999852,1116.9563462,None,1126.4897523,None,8.0,4.265058899999985,1123.1257395,None,10.0,3.0318498999999974,1119.4228948,None,9.0,2.8647743999999875,<function functionImportanceC at 0x0000016384D0C598>,<function functionImportanceB at 0x0000016380518D90>,<function functionImportanceA at 0x0000016380518620>,,,7.0,4.265058899999985,8.0,3.131106700000146,3.0,3.681148900000153,<function functiondiffC at 0x00000163805180D0>,<function functiondiffA at 0x0000016380518840>,<function functiondiffB at 0x0000016380518A60>,,,,,1099.8902611,1133.9392081,None,1136.9059394,None,1129.5894862,None,23,001,2022_Jul_20_0902,2leo,2021.2.3,60.00153603932009,
3,20,Plan a tea party with your friends,Stimuli/20A1.jpg,Stimuli/20A2.jpg,Stimuli/20A3.jpg,Stimuli/20B1.jpg,Stimuli/20B2.jpg,Stimuli/20B3.jpg,Stimuli/20C1.jpg,Stimuli/20C2.jpg,Stimuli/20C3.jpg,,,,,0,14,14,20,,,,,,,,1139.9387474,None,1140.9390842,None,1146.9391247,None,"[-0.377, 0.138]","[0.306, 0.255]","[0.066, -0.395]","[-0.2, 0.346]","[0.399, -0.003]","[-0.203, -0.347]","[-0.378, -0.136]","[0.07, 0.393]","[0.304, -0.26]",,28.084566889999678,21.38509418999979,7.235628889999816,"[-0.32222222222222224, -0.1425925925925926, 0.3592592592592593]","[-0.075, 0.2916666666666667, 0.20555555555555555]","[1, 1, 1]","[0, 0, 0]","[0, 0, 0]","[7.220175100000006, 21.36986920000004, 28.069514200000185]",0.014533889999711391,28.08396338999978,['A2'],['B1'],['C1'],['blue'],['yellow'],['salmon'],1179.1212808999999,None,6.0,2.0807933000000958,1179.1212808999999,None,1187.5046112,None,1.0,3.948324900000216,1183.6880075,None,9.0,6.1639567999998235,1191.4044991,None,4.0,3.0318366000001333,<function functionImportanceB at 0x00000163808849D8>,<function functionImportanceA at 0x00000163805186A8>,<function functionImportanceC at 0x0000016380884620>,,,5.0,3.948324900000216,2.0,2.5143381000000318,7.0,4.164395300000024,<function functiondiffC at 0x0000016380884598>,<function functiondiffB at 0x0000016380884D08>,<function functiondiffA at 0x0000016380518730>,,,,,1150.5833163,1202.2375461,None,1198.6056386,None,1194.4379149,None,23,001,2022_Jul_20_0902,2leo,2021.2.3,60.00153603932009,
3,15,Plan your own Pasta for lunch,Stimuli/15A1.jpg,Stimuli/15A2.jpg,Stimuli/15A3.jpg,Stimuli/15B1.jpg,Stimuli/15B2.jpg,Stimuli/15B3.jpg,Stimuli/15C1.jpg,Stimuli/15C2.jpg,Stimuli/15C3.jpg,,,,,0,15,15,15,,,,,,,,1209.2374292,None,1210.2374974,None,1216.2373115,None,"[0.399, -0.003]","[-0.203, -0.347]","[-0.2, 0.346]","[0.07, 0.393]","[0.304, -0.26]","[-0.378, -0.136]","[0.306, 0.255]","[0.066, -0.395]","[-0.377, 0.138]",,15.604558959999622,7.606214959999761,12.355135659999632,"[0.2740740740740741, -0.33611111111111114, 0.40370370370370373]","[-0.2361111111111111, 0.12222222222222222, -0.04722222222222222]","[1, 1, 1]","[0, 0, 0]","[0, 0, 0]","[7.598061899999948, 12.34666859999993, 15.596798099999887]",0.00734795999983362,15.60386705999963,['A1'],['B2'],['C3'],['yellow'],['salmon'],['blue'],1234.2866022,None,10.0,1.780014700000038,1234.2866022,None,1239.8891280999999,None,10.0,1.8983745999998973,1241.7699503,None,10.0,1.881650000000036,1236.8384585,None,7.0,3.664271699999972,<function functionImportanceC at 0x0000016380884730>,<function functionImportanceA at 0x0000016380884840>,<function functionImportanceB at 0x0000016380884510>,,,0.0,1.8983745999998973,0.0,2.0645644999999604,0.0,2.1980932999999823,<function functiondiffC at 0x0000016380884C80>,<function functiondiffA at 0x0000016384D0C0D0>,<function functiondiffB at 0x00000163821D7AE8>,,,,,1218.2197791,1247.0530365,None,1249.1363324,None,1243.7529335,None,23,001,2022_Jul_20_0902,2leo,2021.2.3,60.00153603932009,
3,25,Plan how you want to read a book in your free time ,Stimuli/25A1.jpg,Stimuli/25A2.jpg,Stimuli/25A3.jpg,Stimuli/25B1.jpg,Stimuli/25B2.jpg,Stimuli/25B3.jpg,Stimuli/25C1.jpg,Stimuli/25C2.jpg,Stimuli/25C3.jpg,,,,,0,16,16,25,,,,,,,,1250.8527222,None,1251.8529589,None,1257.8529924,None,"[-0.2, 0.346]","[-0.203, -0.347]","[0.399, -0.003]","[-0.377, 0.138]","[0.066, -0.395]","[0.306, 0.255]","[-0.378, -0.136]","[0.304, -0.26]","[0.07, 0.393]",,9.522354769999765,21.422059669999953,7.539459569999963,"[0.24537037037037038, -0.15462962962962962, -0.3509259259259259]","[-0.20092592592592592, 0.29814814814814816, 0.11296296296296296]","[1, 1, 1]","[0, 0, 0]","[0, 0, 0]","[7.524643100000048, 9.508215299999847, 21.407641099999864]",0.013739869999881194,21.421103669999866,['A1'],['B1'],['C2'],['salmon'],['yellow'],['blue'],1281.251951,None,6.0,1.9300120999998853,1281.251951,None,1288.0186998,None,10.0,1.898547199999939,1283.2854571999999,None,9.0,2.997753899999907,1286.6020523,None,10.0,1.7321231000000807,<function functionImportanceB at 0x0000016380884950>,<function functionImportanceC at 0x0000016380884400>,<function functionImportanceA at 0x00000163808840D0>,,,10.0,1.898547199999939,1.0,2.1644066999999723,9.0,2.7476773000000776,<function functiondiffB at 0x00000163821D70D0>,<function functiondiffA at 0x00000163808842F0>,<function functiondiffC at 0x0000016380C37268>,,,,,1259.3728706,1292.6686402,None,1289.9185136,None,1294.935086,None,23,001,2022_Jul_20_0902,2leo,2021.2.3,60.00153603932009,
3,4,Plan a game night at your place,Stimuli/4A1.jpg,Stimuli/4A2.jpg,Stimuli/4A3.jpg,Stimuli/4B1.jpg,Stimuli/4B2.jpg,Stimuli/4B3.jpg,Stimuli/4C1.jpg,Stimuli/4C2.jpg,Stimuli/4C3.jpg,,,,,0,17,17,4,,,,,,,,1296.9013075,None,1297.9016778,None,1303.9017245,None,"[-0.2, 0.346]","[0.399, -0.003]","[-0.203, -0.347]","[-0.377, 0.138]","[0.306, 0.255]","[0.066, -0.395]","[-0.378, -0.136]","[0.07, 0.393]","[0.304, -0.26]",,16.238473279999425,8.605567179999525,10.989243879999549,"[0.04351851851851852, 0.26481481481481484, -0.17592592592592593]","[-0.3768518518518518, -0.24814814814814815, -0.3314814814814815]","[1, 1, 1]","[0, 0, 0]","[0, 0, 0]","[8.58959270000014, 10.97300990000008, 16.22274850000008]",0.015135679999502827,16.237548079999442,['A3'],['B3'],['C3'],['salmon'],['yellow'],['blue'],1324.01758,None,9.0,2.1470085999999355,1324.01758,None,1336.2840103,None,2.0,2.7151891999999407,1333.1345734,None,7.0,2.114938200000097,1327.5508025,None,10.0,6.914673199999925,<function functionImportanceC at 0x0000016380C37598>,<function functionImportanceB at 0x0000016380C37158>,<function functionImportanceA at 0x0000016380884488>,,,9.0,2.7151891999999407,5.0,2.831367,8.0,2.981234100000165,<function functiondiffB at 0x0000016380884158>,<function functiondiffC at 0x0000016380C37730>,<function functiondiffA at 0x00000163808848C8>,,,,,1307.3283756,1344.0671832,None,1338.0008097,None,1341.3505804,None,23,001,2022_Jul_20_0902,2leo,2021.2.3,60.00153603932009,
3,38,Plan how you want to go for a run,Stimuli/38A1.jpg,Stimuli/38A2.jpg,Stimuli/38A3.jpg,Stimuli/38B1.jpg,Stimuli/38B2.jpg,Stimuli/38B3.jpg,Stimuli/38C1.jpg,Stimuli/38C2.jpg,Stimuli/38C3.jpg,,,,,0,18,18,38,,,,,,,,1346.1168935,None,1347.1170753,None,1353.1171344,None,"[0.399, -0.003]","[-0.203, -0.347]","[-0.2, 0.346]","[0.07, 0.393]","[0.304, -0.26]","[-0.378, -0.136]","[0.306, 0.255]","[0.066, -0.395]","[-0.377, 0.138]",,7.030746619999945,12.314250119999997,9.047741919999908,"[0.3925925925925926, 0.3416666666666667, 0.1175925925925926]","[0.017592592592592594, 0.2574074074074074, 0.4111111111111111]","[1, 1, 1]","[0, 0, 0]","[0, 0, 0]","[7.0219266999999945, 9.038358300000027, 12.30515349999996]",0.00840091999998549,12.31332752000003,['A1'],['B1'],['C1'],['blue'],['yellow'],['salmon'],1367.166464,None,7.0,2.780629600000111,1367.166464,None,1377.6328403,None,10.0,2.7986516999999367,1369.9995631,None,10.0,3.1643633999999565,1373.316457,None,1.0,4.381780600000184,<function functionImportanceB at 0x0000016380C37EA0>,<function functionImportanceC at 0x0000016380C37E18>,<function functionImportanceA at 0x0000016380C37F28>,,,0.0,2.7986516999999367,1.0,2.648002599999927,1.0,2.7644361000000117,<function functiondiffB at 0x0000016380C37C80>,<function functiondiffA at 0x0000016380C37BF8>,<function functiondiffC at 0x0000016380884BF8>,,,,,1354.3769872999999,1383.1661606,None,1380.3827813999999,None,1385.849206,None,23,001,2022_Jul_20_0902,2leo,2021.2.3,60.00153603932009,
3,26,Plan how to wash one round of your laundry ,Stimuli/26A1.jpg,Stimuli/26A2.jpg,Stimuli/26A3.jpg,Stimuli/26B1.jpg,Stimuli/26B2.jpg,Stimuli/26B3.jpg,Stimuli/26C1.jpg,Stimuli/26C2.jpg,Stimuli/26C3.jpg,,,,,0,19,19,26,,,,,,,,1387.0822917,None,1388.0825481,None,1394.0827126,None,"[0.399, -0.003]","[-0.2, 0.346]","[-0.203, -0.347]","[0.07, 0.393]","[-0.378, -0.136]","[0.304, -0.26]","[0.306, 0.255]","[-0.377, 0.138]","[0.066, -0.395]",,18.52142192999986,13.504926829999931,14.838571530000081,"[-0.32037037037037036, 0.32592592592592595, -0.17314814814814813]","[-0.08148148148148149, 0.2851851851851852, 0.30092592592592593]","[1, 1, 1]","[0, 0, 0]","[0, 0, 0]","[13.492699700000003, 14.826180100000101, 18.50946010000007]",0.011467229999880146,18.52054782999994,['A2'],['B2'],['C1'],['yellow'],['blue'],['salmon'],1414.2153113,None,8.0,2.1141787000001386,1414.2153113,None,1426.0149055,None,9.0,3.9484717000000273,1416.3993613,None,7.0,6.581061399999953,1422.9985534,None,10.0,3.0145371999999497,<function functionImportanceB at 0x0000016380C37840>,<function functionImportanceC at 0x0000016380C378C8>,<function functionImportanceA at 0x0000016380C37AE8>,,,-0.0,3.9484717000000273,10.0,3.6308808999999655,1.0,2.1481198999999833,<function functiondiffA at 0x0000016384D0C158>,<function functiondiffB at 0x00000163821D7F28>,<function functiondiffC at 0x0000016380518F28>,,,,,1395.2204062,1429.9649901999999,None,1433.6148487,None,1435.7814736,None,23,001,2022_Jul_20_0902,2leo,2021.2.3,60.00153603932009,
3,27,Plan what festival to visit with your friends,Stimuli/27A1.jpg,Stimuli/27A2.jpg,Stimuli/27A3.jpg,Stimuli/27B1.jpg,Stimuli/27B2.jpg,Stimuli/27B3.jpg,Stimuli/27C1.jpg,Stimuli/27C2.jpg,Stimuli/27C3.jpg,,,,,0,20,20,27,,,,,,,,1437.3643433,None,1438.3645604,None,1444.3646348,None,"[0.399, -0.003]","[-0.2, 0.346]","[-0.203, -0.347]","[0.306, 0.255]","[-0.377, 0.138]","[0.066, -0.395]","[0.07, 0.393]","[-0.378, -0.136]","[0.304, -0.26]",,17.8035459299997,19.553695829999697,10.43738932999986,"[0.05462962962962963, 0.35185185185185186, -0.337037037037037]","[0.33796296296296297, 0.001851851851851852, 0.08611111111111111]","[1, 1, 1]","[0, 0, 0]","[0, 0, 0]","[10.43373889999998, 17.800507299999936, 19.550274799999897]",0.0026253299997733848,19.552833829999827,['A1'],['B2'],['C1'],['blue'],['salmon'],['yellow'],1465.5471605,None,3.0,3.796624900000097,1465.5471605,None,1472.3489291,None,9.0,2.164840099999992,1469.4146633999999,None,8.0,2.9310343999998167,1474.5469772,None,8.0,3.3320560000001933,<function functionImportanceB at 0x0000016380C37048>,<function functionImportanceA at 0x0000016380518598>,<function functionImportanceC at 0x0000016380C37510>,,,8.0,2.164840099999992,2.0,1.831041900000173,1.0,4.347539500000039,<function functiondiffB at 0x0000016380C371E0>,<function functiondiffA at 0x0000016380C37D90>,<function functiondiffC at 0x0000016380C37B70>,,,,,1445.5124313,1482.2302838,None,1477.8635495,None,1484.0799461,None,23,001,2022_Jul_20_0902,2leo,2021.2.3,60.00153603932009,
3,37,Plan your cleaning routine ,Stimuli/37A1.jpg,Stimuli/37A2.jpg,Stimuli/37A3.jpg,Stimuli/37B1.jpg,Stimuli/37B2.jpg,Stimuli/37B3.jpg,Stimuli/37C1.jpg,Stimuli/37C2.jpg,Stimuli/37C3.jpg,,,,,0,21,21,37,,,,,,,,1487.0463782,None,1488.0467993,None,1494.0463574999999,None,"[0.066, -0.395]","[-0.377, 0.138]","[0.306, 0.255]","[-0.203, -0.347]","[-0.2, 0.346]","[0.399, -0.003]","[0.304, -0.26]","[-0.378, -0.136]","[0.07, 0.393]",,11.402462429999787,9.619387329999881,14.303148729999748,"[-0.1398148148148148, -0.29907407407407405, 0.05925925925925926]","[-0.31574074074074077, 0.08796296296296297, 0.34629629629629627]","[1, 1, 1]","[0, 0, 0]","[0, 0, 0]","[9.608423200000061, 11.391687000000047, 14.291778400000112]",0.01028622999979234,14.301791029999777,['A2'],['B1'],['C3'],['blue'],['yellow'],['salmon'],1509.9626979,None,10.0,1.3637350999999853,1509.9626979,None,1511.3959158,None,9.0,2.4476472999999714,1515.2129594,None,10.0,1.9819817999998577,1513.8461042,None,10.0,1.3483192000001054,<function functionImportanceA at 0x0000016380884048>,<function functionImportanceC at 0x0000016380C379D8>,<function functionImportanceB at 0x00000163808846A8>,,,0.0,2.4476472999999714,0.0,2.6978459999997995,0.0,2.164759100000083,<function functiondiffC at 0x0000016380884AE8>,<function functiondiffB at 0x0000016380884E18>,<function functiondiffA at 0x0000016380884268>,,,,,1495.1861523,1521.8292334999999,None,1519.6459403,None,1517.195885,None,23,001,2022_Jul_20_0902,2leo,2021.2.3,60.00153603932009,
3,36,Plan your shopping for new clothing,Stimuli/36A1.jpg,Stimuli/36A2.jpg,Stimuli/36A3.jpg,Stimuli/36B1.jpg,Stimuli/36B2.jpg,Stimuli/36B3.jpg,Stimuli/36C1.jpg,Stimuli/36C2.jpg,Stimuli/36C3.jpg,,,,,0,22,22,36,,,,,,,,1524.0454023,None,1525.0457199,None,1531.0458599,None,"[0.399, -0.003]","[-0.2, 0.346]","[-0.203, -0.347]","[0.306, 0.255]","[-0.377, 0.138]","[0.066, -0.395]","[0.07, 0.393]","[-0.378, -0.136]","[0.304, -0.26]",,14.156910330000073,17.640691829999923,10.157597429999896,"[-0.4287037037037037, -0.21666666666666667, 0.019444444444444445]","[-0.1111111111111111, 0.37037037037037035, -0.3907407407407407]","[1, 1, 1]","[0, 0, 0]","[0, 0, 0]","[10.1521287999999, 14.152087599999959, 17.635558199999878]",0.004278529999965031,17.63949602999992,['A2'],['B3'],['C2'],['salmon'],['blue'],['yellow'],1550.3116033,None,10.0,2.1634372000000894,1550.3116033,None,1552.5451318,None,6.0,3.5644099000001006,1556.1118052,None,8.0,1.9149187000000438,1558.0615163,None,10.0,2.215097799999967,<function functionImportanceA at 0x0000016380C37620>,<function functionImportanceB at 0x0000016380C37950>,<function functionImportanceC at 0x0000016380C37A60>,,,8.0,3.5644099000001006,2.0,2.3806965999999647,3.0,2.5315391000001455,<function functiondiffB at 0x0000016380C37488>,<function functiondiffA at 0x0000016380518D08>,<function functiondiffC at 0x0000016380C37378>,,,,,1532.1913994,1562.8110985,None,1560.2615018,None,1565.1947087,None,23,001,2022_Jul_20_0902,2leo,2021.2.3,60.00153603932009,
3,44,Plan a party at your place,Stimuli/44A1.jpg,Stimuli/44A2.jpg,Stimuli/44A3.jpg,Stimuli/44B1.jpg,Stimuli/44B2.jpg,Stimuli/44B3.jpg,Stimuli/44C1.jpg,Stimuli/44C2.jpg,Stimuli/44C3.jpg,,,,,0,23,23,44,,,,,,,,1568.9108939,None,1569.9113083,None,1575.9111431,None,"[0.07, 0.393]","[0.304, -0.26]","[-0.378, -0.136]","[0.306, 0.255]","[0.066, -0.395]","[-0.377, 0.138]","[0.399, -0.003]","[-0.203, -0.347]","[-0.2, 0.346]",,27.105852900000173,16.23974320000002,15.20682180000017,"[-0.13425925925925927, 0.08055555555555556, 0.04259259259259259]","[0.3351851851851852, -0.42592592592592593, 0.31296296296296294]","[1, 1, 1]","[0, 0, 0]","[0, 0, 0]","[15.193362699999852, 16.22662749999995, 27.09307549999994]",0.012356800000134172,27.10521390000008,['A1'],['B2'],['C3'],['salmon'],['blue'],['yellow'],1604.6434731,None,2.0,3.763322799999969,1604.6434731,None,1608.4603304,None,10.0,4.39749299999994,1612.8933231,None,10.0,2.1316200999999637,1615.026585,None,10.0,2.3318065999999362,<function functionImportanceA at 0x0000016380C376A8>,<function functionImportanceB at 0x00000163810E7048>,<function functionImportanceC at 0x00000163810E7158>,,,0.0,4.39749299999994,10.0,1.7479005000000143,1.0,2.047834899999998,<function functiondiffC at 0x0000016380518510>,<function functiondiffB at 0x0000016380518C80>,<function functiondiffA at 0x0000016380C377B8>,,,,,1577.066026,1623.0430328,None,1620.976487,None,1617.3598335,None,23,001,2022_Jul_20_0902,2leo,2021.2.3,60.00153603932009,
3,42,Plan how to draw a painting ,Stimuli/42A1.jpg,Stimuli/42A2.jpg,Stimuli/42A3.jpg,Stimuli/42B1.jpg,Stimuli/42B2.jpg,Stimuli/42B3.jpg,Stimuli/42C1.jpg,Stimuli/42C2.jpg,Stimuli/42C3.jpg,,,,,0,24,24,42,,,,,,,,1624.3095232,None,1625.3097714,None,1631.309501,None,"[-0.377, 0.138]","[0.306, 0.255]","[0.066, -0.395]","[-0.378, -0.136]","[0.07, 0.393]","[0.304, -0.26]","[-0.2, 0.346]","[0.399, -0.003]","[-0.203, -0.347]",,12.70040275999986,16.700640759999942,17.83397935999983,"[0.29444444444444445, 0.044444444444444446, -0.13333333333333333]","[0.2361111111111111, 0.3851851851851852, -0.36944444444444446]","[1, 1, 1]","[0, 0, 0]","[0, 0, 0]","[12.69834549999996, 16.69831699999986, 17.831340599999976]",0.0015435599998454563,17.832738759999984,['A2'],['B2'],['C3'],['blue'],['yellow'],['salmon'],1650.9257406,None,7.0,2.5640704999998434,1650.9257406,None,1656.8922843,None,7.0,2.3151792000001024,1659.0757202,None,6.0,2.931651800000054,1653.5613434,None,9.0,3.164378299999953,<function functionImportanceC at 0x00000163810E7B70>,<function functionImportanceA at 0x00000163810E7C80>,<function functionImportanceB at 0x00000163810E71E0>,,,1.0,2.3151792000001024,7.0,3.8315295999998398,2.0,3.6974553999998534,<function functiondiffB at 0x0000016380C372F0>,<function functiondiffA at 0x0000016380C37D08>,<function functiondiffC at 0x00000163810E76A8>,,,,,1632.6091013,1665.742056,None,1661.9923241,None,1669.5587596999999,None,23,001,2022_Jul_20_0902,2leo,2021.2.3,60.00153603932009,
3,39,Plan what kind of watch you want to buy,Stimuli/39A1.jpg,Stimuli/39A2.jpg,Stimuli/39A3.jpg,Stimuli/39B1.jpg,Stimuli/39B2.jpg,Stimuli/39B3.jpg,Stimuli/39C1.jpg,Stimuli/39C2.jpg,Stimuli/39C3.jpg,,,,,0,25,25,39,,,,,,,,1671.6582478999999,None,1672.6585391,None,1678.6585058,None,"[0.306, 0.255]","[0.066, -0.395]","[-0.377, 0.138]","[0.399, -0.003]","[-0.203, -0.347]","[-0.2, 0.346]","[0.07, 0.393]","[0.304, -0.26]","[-0.378, -0.136]",,6.113835139999992,8.19761713999992,9.780955839999933,"[0.2611111111111111, -0.175, 0.1175925925925926]","[0.20833333333333334, -0.35462962962962963, 0.3388888888888889]","[1, 1, 1]","[0, 0, 0]","[0, 0, 0]","[6.097150199999987, 8.180584400000043, 9.763749299999972]",0.01626973999987058,9.779751439999927,['A1'],['B2'],['C1'],['salmon'],['blue'],['yellow'],1690.0914048,None,10.0,1.4306148999999095,1690.0914048,None,1695.4746392,None,10.0,1.3816486000000623,1693.6915361,None,10.0,1.748479399999951,1691.6414522,None,10.0,2.097355000000107,<function functionImportanceC at 0x00000163810E77B8>,<function functionImportanceB at 0x00000163810E72F0>,<function functionImportanceA at 0x00000163810E7840>,,,0.0,1.3816486000000623,0.0,1.6137805000000753,0.0,1.9491846000000805,<function functiondiffC at 0x0000016380C370D0>,<function functiondiffB at 0x0000016380518268>,<function functiondiffA at 0x00000163808841E0>,,,,,1679.842361,1701.3911401999999,None,1699.4246389,None,1696.8413624,None,23,001,2022_Jul_20_0902,2leo,2021.2.3,60.00153603932009,
3,21,Plan your sandwich for lunch,Stimuli/21A1.jpg,Stimuli/21A2.jpg,Stimuli/21A3.jpg,Stimuli/21B1.jpg,Stimuli/21B2.jpg,Stimuli/21B3.jpg,Stimuli/21C1.jpg,Stimuli/21C2.jpg,Stimuli/21C3.jpg,,,,,0,26,26,21,,,,,,,,1702.5241225,None,1703.5246271,None,1709.5246175,None,"[-0.377, 0.138]","[0.306, 0.255]","[0.066, -0.395]","[-0.378, -0.136]","[0.07, 0.393]","[0.304, -0.26]","[-0.2, 0.346]","[0.399, -0.003]","[-0.203, -0.347]",,11.53211720000013,17.132356700000173,13.149128200000177,"[0.31851851851851853, -0.17314814814814813, 0.2861111111111111]","[0.20092592592592592, 0.3138888888888889, -0.2601851851851852]","[1, 1, 1]","[0, 0, 0]","[0, 0, 0]","[11.52300409999998, 13.139595599999893, 17.122928199999933]",0.00859100000025137,17.13118650000024,['A2'],['B3'],['C1'],['blue'],['yellow'],['salmon'],1728.2904687,None,10.0,2.313164499999857,1728.2904687,None,1732.9736879,None,10.0,1.865039200000183,1730.6569249,None,8.0,2.281167600000117,1734.857682,None,10.0,1.9985795999998572,<function functionImportanceB at 0x00000163810E7488>,<function functionImportanceA at 0x00000163810E7400>,<function functionImportanceC at 0x00000163810E7510>,,,0.0,1.865039200000183,-0.0,2.314662799999951,0.0,1.4646494000000985,<function functiondiffA at 0x00000163810E7EA0>,<function functiondiffC at 0x00000163810E7AE8>,<function functiondiffB at 0x00000163810E7950>,,,,,1710.6820619,1736.8236824,None,1740.7745181999999,None,1739.1735082,None,23,001,2022_Jul_20_0902,2leo,2021.2.3,60.00153603932009,
3,3,Plan a movie night with a friend,Stimuli/3A1.jpg,Stimuli/3A2.jpg,Stimuli/3A3.jpg,Stimuli/3B1.jpg,Stimuli/3B2.jpg,Stimuli/3B3.jpg,Stimuli/3C1.jpg,Stimuli/3C2.jpg,Stimuli/3C3.jpg,,,,,0,27,27,3,,,,,,,,1741.7564236,None,1742.7567027,None,1748.756709,None,"[0.306, 0.255]","[-0.377, 0.138]","[0.066, -0.395]","[0.399, -0.003]","[-0.2, 0.346]","[-0.203, -0.347]","[0.07, 0.393]","[-0.378, -0.136]","[0.304, -0.26]",,15.908060809999824,12.558444309999686,17.325180409999803,"[-0.17962962962962964, 0.075, -0.4064814814814815]","[0.30462962962962964, -0.36944444444444446, -0.15185185185185185]","[1, 1, 1]","[0, 0, 0]","[0, 0, 0]","[12.556872099999964, 15.906648700000005, 17.323372999999947]",0.0007780099997489742,17.32401390999985,['A3'],['B2'],['C2'],['blue'],['yellow'],['salmon'],1770.1393618,None,7.0,2.0468210999999883,1770.1393618,None,1779.0890345,None,3.0,2.8154222000000573,1772.9725152,None,10.0,2.8811416999999437,1776.8560573,None,0.0,3.915119200000163,<function functionImportanceB at 0x00000163814797B8>,<function functionImportanceC at 0x0000016381479730>,<function functionImportanceA at 0x00000163810E7730>,,,5.0,2.8154222000000573,7.0,4.398070799999914,-0.0,2.7978462999999465,<function functiondiffB at 0x00000163810E7D08>,<function functiondiffA at 0x0000016380884A60>,<function functiondiffC at 0x00000163810E7BF8>,,,,,1752.3483389,1784.7056018,None,1782.272558,None,1789.489079,None,23,001,2022_Jul_20_0902,2leo,2021.2.3,60.00153603932009,
3,16,Plan a delicious cake for the birthday of a friend,Stimuli/16A1.jpg,Stimuli/16A2.jpg,Stimuli/16A3.jpg,Stimuli/16B1.jpg,Stimuli/16B2.jpg,Stimuli/16B3.jpg,Stimuli/16C1.jpg,Stimuli/16C2.jpg,Stimuli/16C3.jpg,,,,,0,28,28,16,,,,,,,,1791.8717909,None,1792.8721401,None,1798.8721936,None,"[0.07, 0.393]","[-0.378, -0.136]","[0.304, -0.26]","[0.306, 0.255]","[-0.377, 0.138]","[0.066, -0.395]","[0.399, -0.003]","[-0.2, 0.346]","[-0.203, -0.347]",,13.208542729999863,17.89207282999996,19.5251920300002,"[0.24814814814814815, 0.04537037037037037, 0.325]","[-0.22870370370370371, -0.4305555555555556, -0.05648148148148148]","[1, 1, 1]","[0, 0, 0]","[0, 0, 0]","[13.201185500000065, 17.884393499999987, 19.517473999999766]",0.006740429999808839,19.52412983000022,['A3'],['B3'],['C1'],['salmon'],['blue'],['yellow'],1820.3546017,None,0.0,2.3472740000001977,1820.3546017,None,1829.6546434999998,None,9.0,1.5984209999996892,1823.0211342999999,None,7.0,4.314120600000024,1827.2214173999998,None,6.0,2.548567599999842,<function functionImportanceB at 0x0000016381479488>,<function functionImportanceC at 0x0000016381479840>,<function functionImportanceA at 0x00000163810E7E18>,,,6.0,1.5984209999996892,9.0,3.0811517000001913,10.0,1.914544300000216,<function functiondiffA at 0x0000016380518EA0>,<function functiondiffC at 0x0000016381479950>,<function functiondiffB at 0x00000163810E7F28>,,,,,1800.36567,1831.2544139999998,None,1836.5543765,None,1834.3709913,None,23,001,2022_Jul_20_0902,2leo,2021.2.3,60.00153603932009,
3,17,Plan a day in Barcelona with a friend who is new to the city,Stimuli/17A1.jpg,Stimuli/17A2.jpg,Stimuli/17A3.jpg,Stimuli/17B1.jpg,Stimuli/17B2.jpg,Stimuli/17B3.jpg,Stimuli/17C1.jpg,Stimuli/17C2.jpg,Stimuli/17C3.jpg,,,,,0,29,29,17,,,,,,,,1837.9542917,None,1838.9543105,None,1844.9543087,None,"[-0.378, -0.136]","[0.07, 0.393]","[0.304, -0.26]","[-0.377, 0.138]","[0.306, 0.255]","[0.066, -0.395]","[-0.2, 0.346]","[0.399, -0.003]","[-0.203, -0.347]",,12.664374910000333,11.047678010000254,13.93115091000027,"[0.2740740740740741, 0.12037037037037036, -0.2462962962962963]","[0.19722222222222222, 0.3148148148148148, -0.39537037037037037]","[1, 1, 1]","[0, 0, 0]","[0, 0, 0]","[11.03043290000005, 12.647420699999657, 13.913576299999932]",0.016457610000543355,13.93001841000023,['A2'],['B2'],['C3'],['yellow'],['blue'],['salmon'],1860.5535639000002,None,10.0,1.5136032000000341,1860.5535639000002,None,1864.6700632999998,None,2.0,4.079279900000074,1868.7368161000002,None,10.0,2.065356300000076,1862.1367733999998,None,10.0,2.4815408999998,<function functionImportanceC at 0x0000016381479158>,<function functionImportanceA at 0x0000016381479510>,<function functionImportanceB at 0x0000016381479598>,,,9.0,4.079279900000074,5.0,3.047697800000151,0.0,2.4311125000003813,<function functiondiffC at 0x0000016381479E18>,<function functiondiffB at 0x0000016381479D90>,<function functiondiffA at 0x0000016381479C80>,,,,,1846.1549321999998,1877.8365536,None,1875.3864652,None,1870.7700532000001,None,23,001,2022_Jul_20_0902,2leo,2021.2.3,60.00153603932009,
3,5,Plan a birthday party for your younger self when you turn eight,Stimuli/5A1.jpg,Stimuli/5A2.jpg,Stimuli/5A3.jpg,Stimuli/5B1.jpg,Stimuli/5B2.jpg,Stimuli/5B3.jpg,Stimuli/5C1.jpg,Stimuli/5C2.jpg,Stimuli/5C3.jpg,,,,,0,30,30,5,,,,,,,,1899.7194379,None,1900.7194668,None,1906.7194158,None,"[0.066, -0.395]","[0.306, 0.255]","[-0.377, 0.138]","[0.304, -0.26]","[0.07, 0.393]","[-0.378, -0.136]","[-0.203, -0.347]","[0.399, -0.003]","[-0.2, 0.346]",,17.112590419998924,22.8125863199989,17.92987291999907,"[0.3472222222222222, -0.17407407407407408, 0.012962962962962963]","[0.27685185185185185, -0.31666666666666665, 0.35]","[1, 1, 1]","[0, 0, 0]","[0, 0, 0]","[17.097263499999826, 17.914159299999938, 22.797013200000038]",0.014771819999168656,22.811771019999014,['A2'],['B2'],['C1'],['blue'],['yellow'],['salmon'],1935.8017512,None,-0.0,1.8973092000001088,1935.8017512,None,1949.1181871000001,None,7.0,4.880116299999827,1939.2350404000001,None,7.0,6.1146047000002,1944.5182822999998,None,10.0,2.649065000000064,<function functionImportanceB at 0x00000163814792F0>,<function functionImportanceC at 0x00000163814791E0>,<function functionImportanceA at 0x0000016381479A60>,,,8.0,4.880116299999827,10.0,2.91457279999986,6.0,2.4144364000003407,<function functiondiffC at 0x0000016381479620>,<function functiondiffB at 0x0000016381479BF8>,<function functiondiffA at 0x00000163810E7598>,,,,,1912.5409473000002,1958.634648,None,1955.7845375999998,None,1951.5514913,None,23,001,2022_Jul_20_0902,2leo,2021.2.3,60.00153603932009,
3,31,Plan your order at a restaurant    ,Stimuli/31A1.jpg,Stimuli/31A2.jpg,Stimuli/31A3.jpg,Stimuli/31B1.jpg,Stimuli/31B2.jpg,Stimuli/31B3.jpg,Stimuli/31C1.jpg,Stimuli/31C2.jpg,Stimuli/31C3.jpg,,,,,0,31,31,31,,,,,,,,1960.3179251999998,None,1961.3179922000002,None,1967.3176652,None,"[0.306, 0.255]","[0.066, -0.395]","[-0.377, 0.138]","[0.07, 0.393]","[0.304, -0.26]","[-0.378, -0.136]","[0.399, -0.003]","[-0.203, -0.347]","[-0.2, 0.346]",,14.15257900000006,11.720079100000476,16.153431700000056,"[0.05092592592592592, 0.23425925925925925, -0.18981481481481483]","[0.3296296296296296, 0.2518518518518518, -0.3611111111111111]","[1, 1, 1]","[0, 0, 0]","[0, 0, 0]","[11.717410799999925, 14.150152100000014, 16.150401700000202]",0.001973800000087067,16.152358000000277,['A1'],['B1'],['C2'],['blue'],['salmon'],['yellow'],1986.6336391000002,None,10.0,1.7140862999999626,1986.6336391000002,None,1998.4168745,None,9.0,3.281552500000089,1988.4669935999998,None,7.0,2.7478831999997055,1991.2336051999998,None,4.0,5.748427200000151,<function functionImportanceB at 0x0000016380884D90>,<function functionImportanceC at 0x0000016380884F28>,<function functionImportanceA at 0x0000016381479F28>,,,3.0,3.281552500000089,0.0,2.8979309000001194,2.0,3.164598500000011,<function functiondiffC at 0x00000163814790D0>,<function functiondiffA at 0x0000016381479B70>,<function functiondiffB at 0x00000163814796A8>,,,,,1970.0176604,2007.1678387999998,None,2009.7664148000001,None,2000.216827,None,23,001,2022_Jul_20_0902,2leo,2021.2.3,60.00153603932009,
3,41,Plan how you want to have dinner tonight ,Stimuli/41A1.jpg,Stimuli/41A2.jpg,Stimuli/41A3.jpg,Stimuli/41B1.jpg,Stimuli/41B2.jpg,Stimuli/41B3.jpg,Stimuli/41C1.jpg,Stimuli/41C2.jpg,Stimuli/41C3.jpg,,,,,0,32,32,41,,,,,,,,2012.4501122,None,2013.4496797999998,None,2019.4496959,None,"[0.066, -0.395]","[0.306, 0.255]","[-0.377, 0.138]","[0.304, -0.26]","[0.07, 0.393]","[-0.378, -0.136]","[-0.203, -0.347]","[0.399, -0.003]","[-0.2, 0.346]",,9.51748661000056,6.950870610000493,10.351492110000436,"[0.2777777777777778, -0.32314814814814813, -0.22592592592592592]","[-0.24259259259259258, 0.075, 0.3037037037037037]","[1, 1, 1]","[0, 0, 0]","[0, 0, 0]","[6.93956930000013, 9.506312099999832, 10.339849399999821]",0.010566310000285739,10.350153310000223,['A3'],['B1'],['C3'],['blue'],['yellow'],['salmon'],2031.6492372999999,None,8.0,1.3803003000002718,2031.6492372999999,None,2037.9658154,None,10.0,2.0482710999999654,2033.0991722,None,10.0,2.3477342999999564,2035.6325482999998,None,7.0,2.4316429000000426,<function functionImportanceB at 0x00000163818100D0>,<function functionImportanceC at 0x00000163818102F0>,<function functionImportanceA at 0x0000016380884EA0>,,,2.0,2.0482710999999654,3.0,5.281168600000001,-0.0,2.6142743000000337,<function functiondiffB at 0x0000016381479EA0>,<function functiondiffC at 0x00000163810E7D90>,<function functiondiffA at 0x00000163814798C8>,,,,,2020.8250389000002,2044.5324297,None,2039.9490918,None,2042.6156991999999,None,23,001,2022_Jul_20_0902,2leo,2021.2.3,60.00153603932009,
3,6,Plan your wedding,Stimuli/6A1.jpg,Stimuli/6A2.jpg,Stimuli/6A3.jpg,Stimuli/6B1.jpg,Stimuli/6B2.jpg,Stimuli/6B3.jpg,Stimuli/6C1.jpg,Stimuli/6C2.jpg,Stimuli/6C3.jpg,,,,,0,33,33,6,,,,,,,,2049.3349970000004,None,2050.3485528,None,2056.3485821000004,None,"[-0.377, 0.138]","[0.306, 0.255]","[0.066, -0.395]","[-0.378, -0.136]","[0.07, 0.393]","[0.304, -0.26]","[-0.2, 0.346]","[0.399, -0.003]","[-0.203, -0.347]",,15.442724249999173,24.09299214999919,21.47697884999934,"[0.30648148148148147, -0.19907407407407407, -0.2898148148148148]","[0.2601851851851852, -0.3287037037037037, -0.15]","[1, 1, 1]","[0, 0, 0]","[0, 0, 0]","[15.441021599999658, 21.47475630000008, 24.091167099999893]",0.001146649999100191,24.091817849999188,['A2'],['B1'],['C3'],['salmon'],['blue'],['yellow'],2086.0477172,None,6.0,3.36340569999993,2086.0477172,None,2094.5810004,None,10.0,3.031656600000133,2091.0978729000003,None,8.0,3.964737000000241,2097.6978246000003,None,6.0,3.131795300000249,<function functionImportanceB at 0x0000016381810A60>,<function functionImportanceA at 0x00000163818109D8>,<function functionImportanceC at 0x0000016381810510>,,,8.0,3.031656600000133,2.0,2.147716599999967,7.0,2.748081799999909,<function functiondiffC at 0x0000016381810598>,<function functiondiffA at 0x0000016381810BF8>,<function functiondiffB at 0x0000016381810D90>,,,,,2061.4913266000003,2104.0473797000004,None,2106.3139640000004,None,2100.0142038000004,None,23,001,2022_Jul_20_0902,2leo,2021.2.3,60.00153603932009,
3,30,Plan your sport work out for tomorrow,Stimuli/30A1.jpg,Stimuli/30A2.jpg,Stimuli/30A3.jpg,Stimuli/30B1.jpg,Stimuli/30B2.jpg,Stimuli/30B3.jpg,Stimuli/30C1.jpg,Stimuli/30C2.jpg,Stimuli/30C3.jpg,,,,,0,34,34,30,,,,,,,,2108.1979763000004,None,2109.1972568,None,2115.1973111,None,"[0.304, -0.26]","[0.07, 0.393]","[-0.378, -0.136]","[-0.203, -0.347]","[0.399, -0.003]","[-0.2, 0.346]","[0.066, -0.395]","[0.306, 0.255]","[-0.377, 0.138]",,3.859109179999905,6.675889180000013,11.359317280000141,"[0.07777777777777778, -0.18703703703703703, 0.05462962962962963]","[0.39537037037037037, -0.29444444444444445, -0.3453703703703704]","[1, 1, 1]","[0, 0, 0]","[0, 0, 0]","[3.8445120999999745, 6.661143600000287, 11.344368000000031]",0.014037379999990662,11.358292179999808,['A2'],['B1'],['C1'],['blue'],['yellow'],['salmon'],2128.2466552,None,8.0,2.030087999999978,2128.2466552,None,2130.3801240000003,None,7.0,2.9641962999999123,2135.3133174000004,None,5.0,2.081661699999586,2133.3632441000004,None,5.0,1.881826799999999,<function functionImportanceA at 0x0000016381810048>,<function functionImportanceC at 0x0000016381810950>,<function functionImportanceB at 0x0000016381810620>,,,0.0,2.9641962999999123,-0.0,2.4143543999998656,0.0,2.0311062999999194,<function functiondiffA at 0x00000163818108C8>,<function functiondiffC at 0x00000163818107B8>,<function functiondiffB at 0x0000016381810C80>,,,,,2116.4159866,2137.2963352,None,2141.9296469,None,2139.7297477,None,23,001,2022_Jul_20_0902,2leo,2021.2.3,60.00153603932009,
3,18,Plan your Saturday night ,Stimuli/18A1.jpg,Stimuli/18A2.jpg,Stimuli/18A3.jpg,Stimuli/18B1.jpg,Stimuli/18B2.jpg,Stimuli/18B3.jpg,Stimuli/18C1.jpg,Stimuli/18C2.jpg,Stimuli/18C3.jpg,,,,,0,35,35,18,,,,,,,,2143.4638130000003,None,2144.4629962000004,None,2150.4630081,None,"[-0.377, 0.138]","[0.306, 0.255]","[0.066, -0.395]","[-0.378, -0.136]","[0.07, 0.393]","[0.304, -0.26]","[-0.2, 0.346]","[0.399, -0.003]","[-0.203, -0.347]",,9.207332859999497,7.456481659999554,11.173490259999653,"[0.08981481481481482, -0.32685185185185184, -0.1537037037037037]","[0.3287037037037037, 0.14537037037037037, -0.362962962962963]","[1, 1, 1]","[0, 0, 0]","[0, 0, 0]","[7.451890000000276, 9.203141899999991, 11.168614000000161]",0.0037837599993508775,11.172096859999328,['A1'],['B2'],['C3'],['salmon'],['blue'],['yellow'],2163.2456674,None,10.0,1.8803766999999425,2163.2456674,None,2165.1957629000003,None,8.0,2.4642667000002803,2167.6455269000003,None,10.0,1.7833003999999164,2169.4792037,None,5.0,1.4985503999996581,<function functionImportanceA at 0x0000016381810400>,<function functionImportanceB at 0x0000016381810488>,<function functionImportanceC at 0x00000163810E7A60>,,,8.0,2.4642667000002803,2.0,2.4979576999999153,0.0,1.5814037999998618,<function functiondiffA at 0x0000016381810268>,<function functiondiffB at 0x0000016381810E18>,<function functiondiffC at 0x00000163818101E0>,,,,,2151.5916420000003,2170.9622422,None,2173.4623738,None,2175.0790299,None,23,001,2022_Jul_20_0902,2leo,2021.2.3,60.00153603932009,
3,24,Plan your Monday morning on a workday ,Stimuli/24A1.jpg,Stimuli/24A2.jpg,Stimuli/24A3.jpg,Stimuli/24B1.jpg,Stimuli/24B2.jpg,Stimuli/24B3.jpg,Stimuli/24C1.jpg,Stimuli/24C2.jpg,Stimuli/24C3.jpg,,,,,0,36,36,24,,,,,,,,2177.1797404000004,None,2178.1787270000004,None,2184.1789563,None,"[0.07, 0.393]","[-0.378, -0.136]","[0.304, -0.26]","[0.306, 0.255]","[-0.377, 0.138]","[0.066, -0.395]","[0.399, -0.003]","[-0.2, 0.346]","[-0.203, -0.347]",,13.059960929999761,12.444050529999913,10.727756929999941,"[-0.14444444444444443, -0.32314814814814813, 0.03796296296296296]","[0.3333333333333333, 0.1935185185185185, 0.3648148148148148]","[1, 1, 1]","[0, 0, 0]","[0, 0, 0]","[10.72061470000017, 12.43734779999977, 13.053603899999871]",0.005925329999627138,13.059464029999617,['A1'],['B2'],['C2'],['yellow'],['salmon'],['blue'],2198.8614300000004,None,10.0,1.3806369999997514,2198.8614300000004,None,2200.2949215000003,None,10.0,1.7978970999997728,2204.2114788000004,None,10.0,1.6482107999995605,2202.1281275,None,10.0,2.081985199999963,<function functionImportanceA at 0x0000016381479D08>,<function functionImportanceC at 0x0000016381479AE8>,<function functionImportanceB at 0x0000016381479378>,,,0.0,1.7978970999997728,0.0,1.914958999999726,-0.0,2.614371399999982,<function functiondiffB at 0x00000163818106A8>,<function functiondiffA at 0x0000016381810158>,<function functiondiffC at 0x00000163814799D8>,,,,,2185.3223078,2208.4947087,None,2205.8615005,None,2210.4280055000004,None,23,001,2022_Jul_20_0902,2leo,2021.2.3,60.00153603932009,
3,14,Plan your own Pizza for dinner,Stimuli/14A1.jpg,Stimuli/14A2.jpg,Stimuli/14A3.jpg,Stimuli/14B1.jpg,Stimuli/14B2.jpg,Stimuli/14B3.jpg,Stimuli/14C1.jpg,Stimuli/14C2.jpg,Stimuli/14C3.jpg,,,,,0,37,37,14,,,,,,,,2212.0647387000004,None,2213.0777035,None,2219.0779031,None,"[-0.378, -0.136]","[0.304, -0.26]","[0.07, 0.393]","[-0.2, 0.346]","[-0.203, -0.347]","[0.399, -0.003]","[-0.377, 0.138]","[0.066, -0.395]","[0.306, 0.255]",,21.58924134000017,13.422987840000133,21.023267640000086,"[-0.13703703703703704, 0.2712962962962963, 0.2916666666666667]","[0.2962962962962963, 0.25925925925925924, -0.33055555555555555]","[1, 1, 1]","[0, 0, 0]","[0, 0, 0]","[13.409792699999798, 21.009665099999893, 21.57624339999984]",0.012497539999912988,21.588444540000182,['A2'],['B1'],['C3'],['salmon'],['blue'],['yellow'],2242.3270892,None,10.0,1.5302746999996089,2242.3270892,None,2243.927103,None,10.0,2.1476761000003535,2246.1270541000004,None,10.0,2.065273000000161,2248.1435728,None,10.0,1.5985356000001048,<function functionImportanceA at 0x0000016381810840>,<function functionImportanceB at 0x0000016381B4C2F0>,<function functionImportanceC at 0x0000016381B4C598>,,,-0.0,2.1476761000003535,0.0,1.5980635000000802,-0.0,1.9641827999998895,<function functiondiffB at 0x0000016381810F28>,<function functiondiffA at 0x0000016381810B70>,<function functiondiffC at 0x00000163810E7268>,,,,,2220.2644437000004,2251.7437076,None,2249.776843,None,2253.3601103,None,23,001,2022_Jul_20_0902,2leo,2021.2.3,60.00153603932009,
3,28,Plan a one-week camping trip in Spain,Stimuli/28A1.jpg,Stimuli/28A2.jpg,Stimuli/28A3.jpg,Stimuli/28B1.jpg,Stimuli/28B2.jpg,Stimuli/28B3.jpg,Stimuli/28C1.jpg,Stimuli/28C2.jpg,Stimuli/28C3.jpg,,,,,0,38,38,28,,,,,,,,2257.0947793,None,2258.1098056,None,2264.1101355,None,"[0.304, -0.26]","[-0.378, -0.136]","[0.07, 0.393]","[-0.203, -0.347]","[-0.2, 0.346]","[0.399, -0.003]","[0.066, -0.395]","[-0.377, 0.138]","[0.306, 0.255]",,16.28373582999984,19.933400529999744,16.93388462999974,"[0.33425925925925926, -0.3074074074074074, -0.1814814814814815]","[-0.2462962962962963, 0.09074074074074075, 0.30833333333333335]","[1, 1, 1]","[0, 0, 0]","[0, 0, 0]","[16.282333800000288, 16.931918300000234, 19.931677900000068]",0.0009782299998732924,19.932711030000064,['A1'],['B2'],['C2'],['salmon'],['blue'],['yellow'],2285.6757607000004,None,0.0,2.0141701000002286,2285.6757607000004,None,2293.0120459000004,None,10.0,1.9645967000001292,2291.0267848000003,None,10.0,1.965092899999945,2287.7424121000004,None,7.0,3.247915099999773,<function functionImportanceC at 0x0000016381B4C9D8>,<function functionImportanceB at 0x0000016381B4C7B8>,<function functionImportanceA at 0x0000016381B4CAE8>,,,3.0,1.9645967000001292,10.0,1.5978440000003502,6.0,3.514273100000082,<function functiondiffB at 0x0000016381810730>,<function functiondiffA at 0x00000163810E70D0>,<function functiondiffC at 0x0000016381B4C730>,,,,,2265.2578787,2298.492393,None,2294.9592383000004,None,2300.1088931000004,None,23,001,2022_Jul_20_0902,2leo,2021.2.3,60.00153603932009,
3,9,Plan a picnic with friends,Stimuli/9A1.jpg,Stimuli/9A2.jpg,Stimuli/9A3.jpg,Stimuli/9B1.jpg,Stimuli/9B2.jpg,Stimuli/9B3.jpg,Stimuli/9C1.jpg,Stimuli/9C2.jpg,Stimuli/9C3.jpg,,,,,0,39,39,9,,,,,,,,2301.9268073000003,None,2302.9255145,None,2308.9254303000002,None,"[-0.378, -0.136]","[0.07, 0.393]","[0.304, -0.26]","[-0.2, 0.346]","[0.399, -0.003]","[-0.203, -0.347]","[-0.377, 0.138]","[0.306, 0.255]","[0.066, -0.395]",,10.724658659999022,20.341617059998953,9.891889159998755,"[-0.3037037037037037, -0.3148148148148148, -0.18425925925925926]","[0.10462962962962963, -0.10925925925925926, -0.34444444444444444]","[1, 1, 1]","[0, 0, 0]","[0, 0, 0]","[9.889317099999971, 10.72262469999987, 20.339093500000217]",0.0016199599990613933,20.34064105999869,['A1'],['B3'],['C1'],['blue'],['salmon'],['yellow'],2335.0912211000004,None,6.0,1.830553300000247,2335.0912211000004,None,2338.4579553000003,None,8.0,4.1814744000002975,2342.4578326,None,9.0,3.614911199999824,2346.2909729000003,None,5.0,3.415124300000116,<function functionImportanceA at 0x0000016381B4C620>,<function functionImportanceB at 0x0000016381B4C6A8>,<function functionImportanceC at 0x0000016381B4C268>,,,4.0,4.1814744000002975,2.0,2.3811157000000094,7.0,2.4146043999999165,<function functiondiffC at 0x0000016381B4CD90>,<function functiondiffA at 0x0000016381B4C0D0>,<function functiondiffB at 0x0000016381B4C378>,,,,,2314.2858628000004,2353.5576056,None,2355.8740816000004,None,2348.6801546,None,23,001,2022_Jul_20_0902,2leo,2021.2.3,60.00153603932009,
3,43,Plan your dream house,Stimuli/43A1.jpg,Stimuli/43A2.jpg,Stimuli/43A3.jpg,Stimuli/43B1.jpg,Stimuli/43B2.jpg,Stimuli/43B3.jpg,Stimuli/43C1.jpg,Stimuli/43C2.jpg,Stimuli/43C3.jpg,,,,,0,40,40,43,,,,,,,,2357.4423302,None,2358.4573081000003,None,2364.4575265000003,None,"[-0.378, -0.136]","[0.07, 0.393]","[0.304, -0.26]","[-0.377, 0.138]","[0.306, 0.255]","[0.066, -0.395]","[-0.2, 0.346]","[0.399, -0.003]","[-0.203, -0.347]",,15.157575809999798,15.774375009999403,20.874533909999627,"[0.27685185185185185, 0.287962962962963, -0.15648148148148147]","[-0.20925925925925926, 0.22685185185185186, -0.3425925925925926]","[1, 1, 1]","[0, 0, 0]","[0, 0, 0]","[15.151989299999968, 15.768610199999785, 20.868406099999902]",0.004992409999431402,20.87336970999968,['A3'],['B2'],['C3'],['salmon'],['blue'],['yellow'],2387.0231802000003,None,7.0,2.2807298000002447,2387.0231802000003,None,2394.5231078,None,5.0,2.4317667999998775,2391.8731658,None,5.0,2.6152620999996543,2389.4065640000003,None,10.0,2.43119680000018,<function functionImportanceC at 0x0000016381B4CD08>,<function functionImportanceB at 0x0000016381B4C840>,<function functionImportanceA at 0x0000016381B4CC80>,,,10.0,2.4317667999998775,8.0,2.4643256999997902,5.0,2.114629900000182,<function functiondiffA at 0x0000016381B4CA60>,<function functiondiffB at 0x0000016381B4CE18>,<function functiondiffC at 0x0000016381B4CEA0>,,,,,2365.6684156,2396.8731300000004,None,2399.3565448000004,None,2401.4898762000003,None,23,001,2022_Jul_20_0902,2leo,2021.2.3,60.00153603932009,
3,23,Plan a city trip,Stimuli/23A1.jpg,Stimuli/23A2.jpg,Stimuli/23A3.jpg,Stimuli/23B1.jpg,Stimuli/23B2.jpg,Stimuli/23B3.jpg,Stimuli/23C1.jpg,Stimuli/23C2.jpg,Stimuli/23C3.jpg,,,,,0,41,41,23,,,,,,,,2403.6913078000002,None,2404.7063233000003,None,2410.7061970000004,None,"[0.066, -0.395]","[-0.377, 0.138]","[0.306, 0.255]","[-0.203, -0.347]","[-0.2, 0.346]","[0.399, -0.003]","[0.304, -0.26]","[-0.378, -0.136]","[0.07, 0.393]",,13.6972777699998,11.464450569999826,14.464511870000024,"[0.36666666666666664, -0.3972222222222222, -0.4027777777777778]","[0.013888888888888888, 0.11203703703703703, -0.09722222222222222]","[1, 1, 1]","[0, 0, 0]","[0, 0, 0]","[11.455650200000036, 13.688818999999967, 14.455567200000132]",0.007941469999877881,14.46317296999996,['A2'],['B3'],['C2'],['salmon'],['yellow'],['blue'],2426.8222378,None,10.0,1.4965492999999697,2426.8222378,None,2434.6239112000003,None,10.0,2.531814399999803,2430.2055894,None,8.0,4.414741500000218,2428.4246098000003,None,10.0,1.7977559000000838,<function functionImportanceC at 0x0000016381479268>,<function functionImportanceB at 0x0000016381479400>,<function functionImportanceA at 0x0000016381B4C950>,,,0.0,2.531814399999803,3.0,4.064045800000258,10.0,1.7313694999998006,<function functiondiffA at 0x0000016381810AE8>,<function functiondiffC at 0x0000016381B4CF28>,<function functiondiffB at 0x00000163810E7620>,,,,,2411.8810138000003,2437.1553826000004,None,2443.806676,None,2441.2402077,None,23,001,2022_Jul_20_0902,2leo,2021.2.3,60.00153603932009,
3,10,Plan a restaurant visit with your family on the weekend ,Stimuli/10A1.jpg,Stimuli/10A2.jpg,Stimuli/10A3.jpg,Stimuli/10B1.jpg,Stimuli/10B2.jpg,Stimuli/10B3.jpg,Stimuli/10C1.jpg,Stimuli/10C2.jpg,Stimuli/10C3.jpg,,,,,0,42,42,10,,,,,,,,2445.0596897,None,2446.071821,None,2452.0718602,None,"[-0.378, -0.136]","[0.07, 0.393]","[0.304, -0.26]","[-0.377, 0.138]","[0.306, 0.255]","[0.066, -0.395]","[-0.2, 0.346]","[0.399, -0.003]","[-0.203, -0.347]",,26.014734489999682,16.166325389999656,14.081905689999985,"[-0.24814814814814815, -0.36203703703703705, 0.23148148148148148]","[-0.3175925925925926, 0.10555555555555556, -0.275]","[1, 1, 1]","[0, 0, 0]","[0, 0, 0]","[14.066200199999912, 16.15101569999979, 25.99951370000008]",0.01460858999962511,26.013849489999757,['A3'],['B1'],['C3'],['salmon'],['yellow'],['blue'],2482.5207529000004,None,8.0,2.213362599999982,2482.5207529000004,None,2491.0873888,None,7.0,3.715120200000001,2489.3707531,None,5.0,4.298272200000156,2484.7880299000003,None,10.0,1.8477890999997726,<function functionImportanceC at 0x0000016381F9A048>,<function functionImportanceB at 0x0000016381810D08>,<function functionImportanceA at 0x0000016381479048>,,,-0.0,3.715120200000001,5.0,4.514197500000137,10.0,3.431172399999923,<function functiondiffA at 0x0000016381810EA0>,<function functiondiffB at 0x0000016381B4C048>,<function functiondiffC at 0x00000163810E78C8>,,,,,2456.0528933,2494.7039132,None,2499.9704197,None,2502.6702175,None,23,001,2022_Jul_20_0902,2leo,2021.2.3,60.00153603932009,
3,8,Plan the interior of your living-room ,Stimuli/8A1.jpg,Stimuli/8A2.jpg,Stimuli/8A3.jpg,Stimuli/8B1.jpg,Stimuli/8B2.jpg,Stimuli/8B3.jpg,Stimuli/8C1.jpg,Stimuli/8C2.jpg,Stimuli/8C3.jpg,,,,,0,43,43,8,,,,,,,,2504.4891773000004,None,2505.5033493,None,2511.5036632,None,"[0.306, 0.255]","[-0.377, 0.138]","[0.066, -0.395]","[0.399, -0.003]","[-0.2, 0.346]","[-0.203, -0.347]","[0.07, 0.393]","[-0.378, -0.136]","[0.304, -0.26]",,16.34705054999995,14.247198349999962,8.830901150000045,"[-0.3351851851851852, -0.24259259259259258, 0.32037037037037036]","[-0.10648148148148148, 0.2861111111111111, 0.2222222222222222]","[1, 1, 1]","[0, 0, 0]","[0, 0, 0]","[8.828290500000094, 14.24478369999997, 16.34504990000005]",0.0015803500000401982,16.346308549999776,['A1'],['B2'],['C2'],['blue'],['yellow'],['salmon'],2533.1195407,None,9.0,2.213476399999763,2533.1195407,None,2544.4692762000004,None,10.0,1.9987105999998676,2542.3692889000004,None,10.0,3.8817306000000826,2537.2862777,None,10.0,5.147840300000098,<function functionImportanceC at 0x0000016381F9A840>,<function functionImportanceB at 0x0000016381F9A730>,<function functionImportanceA at 0x0000016381B4C510>,,,2.0,1.9987105999998676,0.0,1.697966699999597,10.0,2.4644837000000734,<function functiondiffB at 0x0000016381B4C488>,<function functiondiffA at 0x0000016381B4CBF8>,<function functiondiffC at 0x0000016381810378>,,,,,2516.3056261,2548.9358603,None,2546.9689711,None,2551.2024577,None,23,001,2022_Jul_20_0902,2leo,2021.2.3,60.00153603932009,
3,29,Plan a day in the mountains ,Stimuli/29A1.jpg,Stimuli/29A2.jpg,Stimuli/29A3.jpg,Stimuli/29B1.jpg,Stimuli/29B2.jpg,Stimuli/29B3.jpg,Stimuli/29C1.jpg,Stimuli/29C2.jpg,Stimuli/29C3.jpg,,,,,0,44,44,29,,,,,,,,2552.8720574000004,None,2553.8855123000003,None,2559.8856676,None,"[-0.377, 0.138]","[0.306, 0.255]","[0.066, -0.395]","[-0.378, -0.136]","[0.07, 0.393]","[0.304, -0.26]","[-0.2, 0.346]","[0.399, -0.003]","[-0.203, -0.347]",,7.790296479999597,11.456955079999261,14.140801979999196,"[0.25092592592592594, -0.3296296296296296, -0.1685185185185185]","[0.25555555555555554, -0.09722222222222222, 0.2611111111111111]","[1, 1, 1]","[0, 0, 0]","[0, 0, 0]","[7.785263300000224, 11.451742300000205, 14.135353399999985]",0.004513579999184003,14.139233279999189,['A2'],['B1'],['C1'],['yellow'],['salmon'],['blue'],2575.7350406,None,9.0,3.046422199999597,2575.7350406,None,2581.7014398,None,9.0,1.865252000000055,2583.568399,None,5.0,2.315354099999695,2578.9016935000004,None,8.0,2.781145699999797,<function functionImportanceC at 0x0000016381F9AB70>,<function functionImportanceA at 0x0000016381F9A2F0>,<function functionImportanceB at 0x0000016381F9A400>,,,7.0,1.865252000000055,-0.0,2.5129806999998436,-0.0,2.6311893000001874,<function functiondiffA at 0x0000016381B4C8C8>,<function functiondiffB at 0x0000016381B4CB70>,<function functiondiffC at 0x0000016381B4C1E0>,,,,,2561.1148342,2585.8369482000003,None,2588.3681315000003,None,2591.0179505,None,23,001,2022_Jul_20_0902,2leo,2021.2.3,60.00153603932009,
