Condition,N_Scenario,written_scenario,ImageA1,ImageA2,ImageA3,ImageB1,ImageB2,ImageB3,ImageC1,ImageC2,ImageC3,trials_2.thisRepN,trials_2.thisTrialN,trials_2.thisN,trials_2.thisIndex,trial.thisRepN,trial.thisTrialN,trial.thisN,trial.thisIndex,button_2.started,button_2.stopped,button_2.numClicks,button_2.timesOn,button_2.timesOff,text.started,text.stopped,fixationcross1_started,fixationcross1_stopped,Scenario_started,Scenario_stopped,fixationcross2_started,fixationcross2_stopped,A1pos,A2pos,A3pos,B1pos,B2pos,B3pos,C1pos,C2pos,C3pos,﻿Imagesdecision_started,decisiontimeA,decisiontimeB,decisiontimeC,mouse_x,mouse_y,mouse_leftButton,mouse_midButton,mouse_rightButton,mouse_time,mouse_started,mouse_stopped,clicked_optionA,clicked_optionB,clicked_optionC,colour_category_A,colour_category_B,colour_category_C,question_confidence_started,question_confidence_stopped,slider_confidence_response,slider_confidence_rt,slider_confidence_started,slider_confidence_stopped,question_valueC_started,question_valueC_stopped,slider_valueC_response,slider_valueC_rt,question_valueB_started,question_valueB_stopped,slider_valueB_response,slider_valueB_rt,question_valueA_started,question_valueA_stopped,slider_valueA_response,slider_valueA_rt,Importance_First,Importance_Second,Importance_Third,question_diff_started,question_diff_stopped,slider_diffB_response,slider_diffB_rt,slider_diffC_response,slider_diffC_rt,slider_diffA_response,slider_diffA_rt,diff_First,diff_Second,diff_Third,button_3_started,button_3_stopped,text_2_started,text_2_stopped,Imagesdecision_started,question_diffC_started,question_diffC_stopped,question_diffB_started,question_diffB_stopped,question_diffA_started,question_diffA_stopped,participant,session,date,expName,psychopyVersion,frameRate,
3,2,Plan a party to celebrate your birthday,Stimuli/2A1t.jpg,Stimuli/2A2t.jpg,Stimuli/2A3t.jpg,Stimuli/2B1t.jpg,Stimuli/2B2t.jpg,Stimuli/2B3t.jpg,Stimuli/2C1t.jpg,Stimuli/2C2t.jpg,Stimuli/2C3t.jpg,0,0,0,0,,,,,29.346876300001895,None,1,[0.9929297000016959],[0.9929338000001735],29.346876300001895,None,94.84226970000236,None,95.85163180000018,None,101.85145190000185,None,"[0.304, -0.26]","[-0.378, -0.136]","[0.07, 0.393]","[-0.203, -0.347]","[-0.2, 0.346]","[0.399, -0.003]","[0.066, -0.395]","[-0.377, 0.138]","[0.306, 0.255]",105.84662080000271,11.930279439984588,14.597272139984852,8.597585439987597,"[-0.3962962962962963, -0.33055555555555555, 0.3962962962962963]","[0.14629629629629629, -0.09722222222222222, -0.012962962962962963]","[1, 1, 1]","[0, 0, 0]","[0, 0, 0]","[8.588378599997668, 11.92163950000031, 14.588262799999939]",0.00813393998760148,14.596107539986406,['A2'],['B3'],['C2'],['yellow'],['salmon'],['blue'],120.90103810000073,None,9.0,5.396656299999449,120.90103810000073,None,126.38414790000024,None,10.0,6.564650000000256,134.50360880000153,None,3.0,5.765139900002396,140.00051840000015,None,6.0,6.914855700000771,<function functionImportanceCt at 0x0000022E810C0D08>,<function functionImportanceBt at 0x0000022E810C0B70>,<function functionImportanceAt at 0x0000022EEF3B1E18>,156.316534900001,None,7.0,7.41417999999976,-0.0,2.7809812999985297,3.0,6.914855700000771,<function functiondiffBt at 0x0000022E81DEBF28>,<function functiondiffCt at 0x0000022E81DEB598>,<function functiondiffAt at 0x0000022E81DEBD08>,,,,,,,,,,,,27,001,2022_Jul_20_1705,2leo,2021.2.3,59.98497976104575,
3,3,Plan one week of vacation,Stimuli/3A1t.jpg,Stimuli/3A2t.jpg,Stimuli/3A3t.jpg,Stimuli/3B1t.jpg,Stimuli/3B2t.jpg,Stimuli/3B3t.jpg,Stimuli/3C1t.jpg,Stimuli/3C2t.jpg,Stimuli/3C3t.jpg,0,1,1,1,,,,,,,,,,,,160.25000229999932,None,161.2497598000009,None,167.24985390000074,None,"[-0.203, -0.347]","[-0.2, 0.346]","[0.399, -0.003]","[0.304, -0.26]","[-0.378, -0.136]","[0.07, 0.393]","[0.066, -0.395]","[-0.377, 0.138]","[0.306, 0.255]",173.35290320000058,15.491308159987966,9.241440059988236,20.42491655998674,"[0.30185185185185187, -0.2518518518518518, 0.27314814814814814]","[-0.2064814814814815, 0.337037037037037, 0.22777777777777777]","[1, 1, 1]","[0, 0, 0]","[0, 0, 0]","[9.22934610000084, 15.479429300001357, 20.412448500002938]",0.011393859986128518,20.423567659989203,['A2'],['B1'],['C3'],['salmon'],['yellow'],['blue'],194.23230030000195,None,4.0,4.864001999998436,194.23230030000195,None,210.86506949999966,None,6.0,7.514786100000492,218.68173600000227,None,1.0,8.165001200002735,201.06561890000012,None,4.0,10.231272299999546,<function functionImportanceAt at 0x0000022EECA531E0>,<function functionImportanceCt at 0x0000022E810C0D90>,<function functionImportanceBt at 0x0000022E810C09D8>,238.19785559999946,None,8.0,7.264372699999512,2.0,4.597630099997332,5.0,10.231272299999546,<function functiondiffBt at 0x0000022E81DEB840>,<function functiondiffAt at 0x0000022E81DEB1E0>,<function functiondiffCt at 0x0000022E81DEB0D0>,,,,,,,,,,,,27,001,2022_Jul_20_1705,2leo,2021.2.3,59.98497976104575,
3,22,Plan a beach day with your friends,Stimuli/22A1.jpg,Stimuli/22A2.jpg,Stimuli/22A3.jpg,Stimuli/22B1.jpg,Stimuli/22B2.jpg,Stimuli/22B3.jpg,Stimuli/22C1.jpg,Stimuli/22C2.jpg,Stimuli/22C3.jpg,,,,,0,0,0,22,,,,,,,,362.16123700000026,None,363.14467010000226,None,369.14444600000206,None,"[0.066, -0.395]","[0.306, 0.255]","[-0.377, 0.138]","[0.304, -0.26]","[0.07, 0.393]","[-0.378, -0.136]","[-0.203, -0.347]","[0.399, -0.003]","[-0.2, 0.346]",,16.54447391999929,8.011601619997236,12.278047819996573,"[-0.35462962962962963, 0.35185185185185186, -0.3537037037037037]","[-0.07962962962962963, 0.03518518518518519, 0.15555555555555556]","[1, 1, 1]","[0, 0, 0]","[0, 0, 0]","[8.00620649999837, 12.272608399998717, 16.539486800000304]",0.004373119998490438,16.543631419997837,['A3'],['B3'],['C2'],['blue'],['salmon'],['yellow'],387.3771740000011,None,8.0,3.9961933999984467,387.3771740000011,None,403.31030420000025,None,9.0,7.681361400002061,399.69375720000244,None,10.0,3.581691100000171,391.4938777999996,None,3.0,8.197241699999722,<function functionImportanceA at 0x0000022E81DEBC80>,<function functionImportanceB at 0x0000022E810C0F28>,<function functionImportanceC at 0x0000022E81E796A8>,,,-0.0,3.4474885999989056,-0.0,8.197241699999722,5.0,5.047597599997971,<function functiondiffC at 0x0000022E81DEBE18>,<function functiondiffB at 0x0000022E81DEB6A8>,<function functiondiffA at 0x0000022E81DEBEA0>,241.881107600002,None,241.881107600002,None,370.35486850000234,410.92686180000237,None,416.26005500000247,None,419.72655560000203,None,27,001,2022_Jul_20_1705,2leo,2021.2.3,59.98497976104575,
3,42,Plan how to draw a painting ,Stimuli/42A1.jpg,Stimuli/42A2.jpg,Stimuli/42A3.jpg,Stimuli/42B1.jpg,Stimuli/42B2.jpg,Stimuli/42B3.jpg,Stimuli/42C1.jpg,Stimuli/42C2.jpg,Stimuli/42C3.jpg,,,,,0,1,1,42,,,,,,,,424.29295640000055,None,425.29299080000055,None,431.29291210000156,None,"[-0.2, 0.346]","[0.399, -0.003]","[-0.203, -0.347]","[-0.378, -0.136]","[0.07, 0.393]","[0.304, -0.26]","[-0.377, 0.138]","[0.306, 0.255]","[0.066, -0.395]",,9.486159759999282,13.835852660002274,18.136478860000352,"[-0.20462962962962963, 0.3962962962962963, 0.3333333333333333, 0.07407407407407407]","[-0.31666666666666665, -0.22962962962962963, -0.22962962962962963, -0.3527777777777778]","[1, 1, 1, 1]","[0, 0, 0, 0]","[0, 0, 0, 0]","[9.469285999999556, 13.335495299998001, 13.81866479999735, 18.119132799998624]",0.0162648600016837,18.135114259999682,['A3'],['B3'],['C3'],['yellow'],['blue'],['salmon'],451.19216100000267,None,3.0,4.396653299998434,451.19216100000267,None,462.9754595000013,None,6.0,3.8315587999968557,455.6590045000012,None,9.0,4.2479655999995884,460.07544690000213,None,2.0,3.0310821999992186,<function functionImportanceB at 0x0000022E81E79F28>,<function functionImportanceA at 0x0000022E81E79C80>,<function functionImportanceC at 0x0000022E81E79840>,,,2.0,5.797869300000457,3.0,3.0310821999992186,3.0,5.031298500001867,<function functiondiffB at 0x0000022E81E79D90>,<function functiondiffA at 0x0000022E81E79BF8>,<function functiondiffC at 0x0000022E81DEB488>,,,,,432.58914110000114,477.6581941000004,None,466.7754182000026,None,472.641795800002,None,27,001,2022_Jul_20_1705,2leo,2021.2.3,59.98497976104575,
3,16,Plan a delicious cake for the birthday of a friend,Stimuli/16A1.jpg,Stimuli/16A2.jpg,Stimuli/16A3.jpg,Stimuli/16B1.jpg,Stimuli/16B2.jpg,Stimuli/16B3.jpg,Stimuli/16C1.jpg,Stimuli/16C2.jpg,Stimuli/16C3.jpg,,,,,0,2,2,16,,,,,,,,482.4747043999996,None,483.4748792999999,None,489.4748333000025,None,"[0.306, 0.255]","[-0.377, 0.138]","[0.066, -0.395]","[0.399, -0.003]","[-0.2, 0.346]","[-0.203, -0.347]","[0.07, 0.393]","[-0.378, -0.136]","[0.304, -0.26]",,15.247486479995132,11.647912979995453,7.481263979996584,"[0.06666666666666667, 0.44074074074074077, -0.32407407407407407]","[0.43148148148148147, 0.05092592592592592, 0.1361111111111111]","[1, 1, 1]","[0, 0, 0]","[0, 0, 0]","[7.467084500000055, 11.634044800000993, 15.233766199999081]",0.013186379997932818,15.24687867999819,['A2'],['B1'],['C1'],['yellow'],['salmon'],['blue'],506.6239970000024,None,3.0,3.530286500001239,506.6239970000024,None,510.29069810000146,None,9.0,4.097603099999105,514.5574340999992,None,6.0,4.131194100002176,518.4906263000012,None,1.0,5.914775499997631,<function functionImportanceC at 0x0000022E81DEB510>,<function functionImportanceB at 0x0000022E81DEB620>,<function functionImportanceA at 0x0000022E81E79598>,,,2.0,3.41435139999885,-0.0,5.914775499997631,10.0,2.2477085999998963,<function functiondiffC at 0x0000022E81E79D08>,<function functiondiffB at 0x0000022E81E79510>,<function functiondiffA at 0x0000022E81E79620>,,,,,490.9221337000017,524.4070541000001,None,526.6071656999993,None,530.0070741000018,None,27,001,2022_Jul_20_1705,2leo,2021.2.3,59.98497976104575,
3,18,Plan your Saturday night ,Stimuli/18A1.jpg,Stimuli/18A2.jpg,Stimuli/18A3.jpg,Stimuli/18B1.jpg,Stimuli/18B2.jpg,Stimuli/18B3.jpg,Stimuli/18C1.jpg,Stimuli/18C2.jpg,Stimuli/18C3.jpg,,,,,0,3,3,18,,,,,,,,531.7734870999993,None,532.7736213999997,None,538.7735283000002,None,"[-0.2, 0.346]","[-0.203, -0.347]","[0.399, -0.003]","[-0.377, 0.138]","[0.066, -0.395]","[0.306, 0.255]","[-0.378, -0.136]","[0.304, -0.26]","[0.07, 0.393]",,10.32376382000075,2.8242383200013137,7.1914932200015755,"[-0.36944444444444446, 0.06388888888888888, -0.18333333333333332]","[0.1574074074074074, 0.45092592592592595, 0.3101851851851852]","[1, 1, 1]","[0, 0, 0]","[0, 0, 0]","[2.8122199999997974, 7.1790839999994205, 10.312009199999011]",0.011309820001770277,10.323279119998915,['A1'],['B1'],['C3'],['salmon'],['blue'],['yellow'],550.6896584999995,None,10.0,2.2802909999991243,550.6896584999995,None,553.056377500001,None,9.0,4.314720300000772,559.9729303999993,None,10.0,2.6650541000017256,557.3728635000007,None,10.0,2.6151371999985713,<function functionImportanceC at 0x0000022E81E79268>,<function functionImportanceA at 0x0000022E81DEBD90>,<function functionImportanceB at 0x0000022E81DEB2F0>,,,0.0,1.6140365000028396,2.0,2.6151371999985713,1.0,3.0983863000001293,<function functiondiffC at 0x0000022E81E79048>,<function functiondiffA at 0x0000022E81DEBAE8>,<function functiondiffB at 0x0000022E81E79488>,,,,,539.8931828000023,562.6560136000007,None,572.3059216000001,None,569.1891515999996,None,27,001,2022_Jul_20_1705,2leo,2021.2.3,59.98497976104575,
3,28,Plan a one-week camping trip in Spain,Stimuli/28A1.jpg,Stimuli/28A2.jpg,Stimuli/28A3.jpg,Stimuli/28B1.jpg,Stimuli/28B2.jpg,Stimuli/28B3.jpg,Stimuli/28C1.jpg,Stimuli/28C2.jpg,Stimuli/28C3.jpg,,,,,0,4,4,28,,,,,,,,573.438978000002,None,574.439083600002,None,580.4390972000001,None,"[-0.378, -0.136]","[0.304, -0.26]","[0.07, 0.393]","[-0.2, 0.346]","[-0.203, -0.347]","[0.399, -0.003]","[-0.377, 0.138]","[0.066, -0.395]","[0.306, 0.255]",,19.993078999999852,28.29313540000294,6.610749700001179,"[0.03425925925925926, 0.012962962962962963, -0.20092592592592592]","[-0.3851851851851852, 0.43333333333333335, -0.2916666666666667]","[1, 1, 1]","[0, 0, 0]","[0, 0, 0]","[6.597291500002029, 19.980015800003457, 28.27990740000314]",0.012462900001992239,28.292136500000197,['A3'],['B2'],['C2'],['blue'],['salmon'],['yellow'],610.3548508999993,None,2.0,1.963421799999196,610.3548508999993,None,612.3915271000005,None,1.0,3.9975792999975965,619.0879392999996,None,0.0,2.448490299997502,616.4044826000027,None,8.0,2.6824164999998175,<function functionImportanceC at 0x0000022E806EB7B8>,<function functionImportanceA at 0x0000022E81DEBBF8>,<function functionImportanceB at 0x0000022E806EB620>,,,9.0,3.3811901999979455,8.0,2.6824164999998175,2.0,2.0811584000002767,<function functiondiffB at 0x0000022EFBC75F28>,<function functiondiffC at 0x0000022E81E79EA0>,<function functiondiffA at 0x0000022E81DEB730>,,,,,581.5889270000007,624.9379721000005,None,621.5380213000026,None,628.4211548999992,None,27,001,2022_Jul_20_1705,2leo,2021.2.3,59.98497976104575,
3,25,Plan how you want to read a book in your free time ,Stimuli/25A1.jpg,Stimuli/25A2.jpg,Stimuli/25A3.jpg,Stimuli/25B1.jpg,Stimuli/25B2.jpg,Stimuli/25B3.jpg,Stimuli/25C1.jpg,Stimuli/25C2.jpg,Stimuli/25C3.jpg,,,,,0,5,5,25,,,,,,,,630.0208432,None,631.0210689000014,None,637.0209259000003,None,"[-0.378, -0.136]","[0.07, 0.393]","[0.304, -0.26]","[-0.377, 0.138]","[0.306, 0.255]","[0.066, -0.395]","[-0.2, 0.346]","[0.399, -0.003]","[-0.203, -0.347]",,18.43412289999469,4.518311599997105,13.785970799995994,"[0.25925925925925924, -0.16203703703703703, -0.33611111111111114]","[0.21296296296296297, 0.3527777777777778, -0.09444444444444444]","[1, 1, 1]","[0, 0, 0]","[0, 0, 0]","[4.50280770000245, 13.770365399999719, 18.41907550000178]",0.01462609999725828,18.4334258999952,['A1'],['B2'],['C1'],['blue'],['salmon'],['yellow'],657.4034592000025,None,9.0,2.5300577000016347,657.4034592000025,None,660.3216098000012,None,9.0,3.3642741999974533,663.419988900001,None,10.0,2.4486231000009866,665.8535308999999,None,8.0,4.814831600000616,<function functionImportanceC at 0x0000022E806EBD90>,<function functionImportanceB at 0x0000022E806EB1E0>,<function functionImportanceA at 0x0000022E806EBEA0>,,,-0.0,2.565199399999983,2.0,4.814831600000616,1.0,1.7310871000008774,<function functiondiffC at 0x0000022E81E798C8>,<function functiondiffB at 0x0000022E81E79158>,<function functiondiffA at 0x0000022EF4010E18>,,,,,638.5138393000016,670.7198628000006,None,673.8366182999998,None,676.4032522000016,None,27,001,2022_Jul_20_1705,2leo,2021.2.3,59.98497976104575,
3,26,Plan how to wash one round of your laundry ,Stimuli/26A1.jpg,Stimuli/26A2.jpg,Stimuli/26A3.jpg,Stimuli/26B1.jpg,Stimuli/26B2.jpg,Stimuli/26B3.jpg,Stimuli/26C1.jpg,Stimuli/26C2.jpg,Stimuli/26C3.jpg,,,,,0,6,6,26,,,,,,,,677.6696713000019,None,678.6697875000027,None,684.6697937000026,None,"[0.07, 0.393]","[-0.378, -0.136]","[0.304, -0.26]","[0.399, -0.003]","[-0.2, 0.346]","[-0.203, -0.347]","[0.306, 0.255]","[-0.377, 0.138]","[0.066, -0.395]",,8.048676160004106,12.015612860002875,4.165868660002161,"[0.3731481481481482, -0.39537037037037037, -0.19537037037037036]","[0.24259259259259258, -0.08148148148148149, -0.2953703703703704]","[1, 1, 1]","[0, 0, 0]","[0, 0, 0]","[4.158061899997847, 8.041254799998569, 12.007838400000765]",0.006889260002935771,12.014627660002589,['A2'],['B3'],['C1'],['blue'],['salmon'],['yellow'],698.3025995999997,None,9.0,3.0967495999975654,698.3025995999997,None,709.2189042000027,None,3.0,4.631854000002932,713.8689455000022,None,2.0,2.498137200000201,701.4526646000013,None,2.0,7.731113599998935,<function functionImportanceA at 0x0000022E806EB9D8>,<function functionImportanceC at 0x0000022E806EB598>,<function functionImportanceB at 0x0000022E806EB2F0>,,,2.0,3.764247899998736,2.0,7.731113599998935,-0.0,3.014728999998624,<function functiondiffB at 0x0000022E806EBD08>,<function functiondiffC at 0x0000022E806EBE18>,<function functiondiffA at 0x0000022E806EB0D0>,,,,,685.8101016,720.1354611999996,None,716.3521800000017,None,722.2186776000017,None,27,001,2022_Jul_20_1705,2leo,2021.2.3,59.98497976104575,
3,7,Plan your Sunday breakfast ,Stimuli/7A1.jpg,Stimuli/7A2.jpg,Stimuli/7A3.jpg,Stimuli/7B1.jpg,Stimuli/7B2.jpg,Stimuli/7B3.jpg,Stimuli/7C1.jpg,Stimuli/7C2.jpg,Stimuli/7C3.jpg,,,,,0,7,7,7,,,,,,,,724.7517566000024,None,725.7535012000008,None,731.7684356000027,None,"[-0.377, 0.138]","[0.066, -0.395]","[0.306, 0.255]","[-0.2, 0.346]","[-0.203, -0.347]","[0.399, -0.003]","[-0.378, -0.136]","[0.304, -0.26]","[0.07, 0.393]",,3.338838379982917,16.588870979983767,12.522508479982207,"[0.2833333333333333, -0.33796296296296297, 0.3611111111111111]","[0.23148148148148148, -0.06851851851851852, -0.03425925925925926]","[1, 1, 1]","[0, 0, 0]","[0, 0, 0]","[3.3359053999993193, 12.519237299999077, 16.585647299998527]",0.00234307998107397,16.587880679981026,['A3'],['B3'],['C1'],['blue'],['yellow'],['salmon'],754.8175553000001,None,8.0,3.6968795000029786,754.8175553000001,None,764.2509202000001,None,2.0,4.14825479999854,769.1338938000008,None,2.0,5.764781999998377,760.3176136000002,None,10.0,4.464572499997303,<function functionImportanceA at 0x0000022E80F7FEA0>,<function functionImportanceC at 0x0000022E806EB510>,<function functionImportanceB at 0x0000022E81E79E18>,,,10.0,3.71417019999717,5.0,4.464572499997303,-0.0,3.348157899999933,<function functiondiffB at 0x0000022E806EB950>,<function functiondiffA at 0x0000022E806EB8C8>,<function functiondiffC at 0x0000022E806EBA60>,,,,,737.7662216000026,780.4504803000018,None,773.6840228000001,None,777.2339888000024,None,27,001,2022_Jul_20_1705,2leo,2021.2.3,59.98497976104575,
3,35,Plan how you want to do your grocery shopping ,Stimuli/35A1.jpg,Stimuli/35A2.jpg,Stimuli/35A3.jpg,Stimuli/35B1.jpg,Stimuli/35B2.jpg,Stimuli/35B3.jpg,Stimuli/35C1.jpg,Stimuli/35C2.jpg,Stimuli/35C3.jpg,,,,,0,8,8,35,,,,,,,,782.9500226000018,None,783.950251000002,None,789.9502350000002,None,"[0.066, -0.395]","[0.306, 0.255]","[-0.377, 0.138]","[0.304, -0.26]","[0.07, 0.393]","[-0.378, -0.136]","[-0.203, -0.347]","[0.399, -0.003]","[-0.2, 0.346]",,21.84592271999645,18.26291021999714,5.346801919997233,"[-0.14814814814814814, -0.37407407407407406, -0.33425925925925926]","[0.3768518518518518, -0.1259259259259259, 0.14814814814814814]","[1, 1, 1]","[0, 0, 0]","[0, 0, 0]","[5.332556699999259, 18.248930000001565, 21.832162499998958]",0.013134519995219307,21.845051619995502,['A3'],['B3'],['C3'],['salmon'],['blue'],['yellow'],813.5495421000014,None,8.0,3.39664669999911,813.5495421000014,None,817.0495821000004,None,2.0,5.514544300000125,827.4994038000004,None,10.0,4.831863000003068,822.6161328000017,None,8.0,4.798777800002426,<function functionImportanceC at 0x0000022E80ADC8C8>,<function functionImportanceA at 0x0000022E806EB378>,<function functionImportanceB at 0x0000022E80ADC950>,,,9.0,5.831122299998242,3.0,4.798777800002426,1.0,3.8315614000021014,<function functiondiffC at 0x0000022E806EB400>,<function functiondiffA at 0x0000022EFBBD59D8>,<function functiondiffB at 0x0000022E806EBF28>,,,,,791.2345282000024,832.1826148,None,839.1489934000019,None,835.2823601000018,None,27,001,2022_Jul_20_1705,2leo,2021.2.3,59.98497976104575,
3,12,Plan the ingredients to mix yourself a cocktail,Stimuli/12A1.jpg,Stimuli/12A2.jpg,Stimuli/12A3.jpg,Stimuli/12B1.jpg,Stimuli/12B2.jpg,Stimuli/12B3.jpg,Stimuli/12C1.jpg,Stimuli/12C2.jpg,Stimuli/12C3.jpg,,,,,0,9,9,12,,,,,,,,844.4819377999993,None,845.4821130000018,None,851.4820497000001,None,"[-0.377, 0.138]","[0.306, 0.255]","[0.066, -0.395]","[-0.378, -0.136]","[0.07, 0.393]","[0.304, -0.26]","[-0.2, 0.346]","[0.399, -0.003]","[-0.203, -0.347]",,14.367752599999221,9.517997399998421,7.201887899998837,"[-0.13425925925925927, 0.012962962962962963, -0.33240740740740743]","[0.30185185185185187, 0.35833333333333334, 0.1814814814814815]","[1, 1, 1]","[0, 0, 0]","[0, 0, 0]","[7.192922700000054, 9.509144500003458, 14.359293600002275]",0.008045299997320399,14.367048099997191,['A1'],['B2'],['C1'],['blue'],['yellow'],['salmon'],867.4813768999993,None,3.0,2.180026399997587,867.4813768999993,None,873.7646473000023,None,0.0,1.9985556999999972,875.7813865000026,None,7.0,2.9648121999998693,869.7480830000022,None,8.0,4.014341499998409,<function functionImportanceA at 0x0000022E81E79A60>,<function functionImportanceC at 0x0000022E806EB840>,<function functionImportanceB at 0x0000022E806EB048>,,,3.0,6.414047199999914,10.0,4.014341499998409,1.0,3.564928300002066,<function functiondiffB at 0x0000022E806EB158>,<function functiondiffA at 0x0000022E806EBBF8>,<function functiondiffC at 0x0000022E80ADC598>,,,,,852.6370176000019,888.7476024000025,None,878.7311278000016,None,885.164431600002,None,27,001,2022_Jul_20_1705,2leo,2021.2.3,59.98497976104575,
3,17,Plan a day in Barcelona with a friend who is new to the city,Stimuli/17A1.jpg,Stimuli/17A2.jpg,Stimuli/17A3.jpg,Stimuli/17B1.jpg,Stimuli/17B2.jpg,Stimuli/17B3.jpg,Stimuli/17C1.jpg,Stimuli/17C2.jpg,Stimuli/17C3.jpg,,,,,0,10,10,17,,,,,,,,891.2641113999998,None,892.2638315000004,None,898.2642403999998,None,"[-0.378, -0.136]","[0.07, 0.393]","[0.304, -0.26]","[-0.377, 0.138]","[0.306, 0.255]","[0.066, -0.395]","[-0.2, 0.346]","[0.399, -0.003]","[-0.203, -0.347]",,4.7825327399950766,6.982903839994833,15.599656539994612,"[0.2935185185185185, 0.24166666666666667, 0.3638888888888889]","[-0.24166666666666667, 0.21203703703703702, 0.05092592592592592]","[1, 1, 1]","[0, 0, 0]","[0, 0, 0]","[4.77496070000052, 6.975136500001099, 15.591719299998658]",0.006926739995833486,15.598216939994018,['A3'],['B2'],['C2'],['yellow'],['blue'],['salmon'],915.5133910000004,None,9.0,2.5629903999979433,915.5133910000004,None,921.1633079999992,None,7.0,4.098219699997571,918.1467750000011,None,10.0,2.9978366999966966,925.3143032000007,None,9.0,2.865253700001631,<function functionImportanceB at 0x0000022E81E79B70>,<function functionImportanceC at 0x0000022E806EB730>,<function functionImportanceA at 0x0000022E81E79730>,,,-0.0,2.847709900001064,10.0,2.865253700001631,7.0,4.897969900001044,<function functiondiffB at 0x0000022E80ADC7B8>,<function functiondiffA at 0x0000022E80ADCB70>,<function functiondiffC at 0x0000022E80ADC620>,,,,,899.4374553000016,935.9135163999999,None,928.1297902000006,None,930.9966238000015,None,27,001,2022_Jul_20_1705,2leo,2021.2.3,59.98497976104575,
3,23,Plan a city trip,Stimuli/23A1.jpg,Stimuli/23A2.jpg,Stimuli/23A3.jpg,Stimuli/23B1.jpg,Stimuli/23B2.jpg,Stimuli/23B3.jpg,Stimuli/23C1.jpg,Stimuli/23C2.jpg,Stimuli/23C3.jpg,,,,,0,11,11,23,,,,,,,,938.0628200000028,None,939.0630853000002,None,945.0629198999995,None,"[0.066, -0.395]","[-0.377, 0.138]","[0.306, 0.255]","[-0.203, -0.347]","[-0.2, 0.346]","[0.399, -0.003]","[0.304, -0.26]","[-0.378, -0.136]","[0.07, 0.393]",,6.937482440003805,9.53779004000171,3.221278840002924,"[0.24537037037037038, 0.06296296296296296, 0.42592592592592593]","[-0.21944444444444444, -0.32592592592592595, 0.021296296296296296]","[1, 1, 1]","[0, 0, 0]","[0, 0, 0]","[3.2109391999983927, 6.927707800001372, 9.527521899999556]",0.009375640001962893,9.536814940001932,['A1'],['B3'],['C1'],['salmon'],['yellow'],['blue'],956.2456392999993,None,10.0,2.2300560000003316,956.2456392999993,None,963.9619592000017,None,8.0,6.699625900000683,958.5458233999998,None,8.0,5.364149199998792,970.6288621000022,None,10.0,2.5137285999990127,<function functionImportanceB at 0x0000022E806EB488>,<function functionImportanceC at 0x0000022E80ADC510>,<function functionImportanceA at 0x0000022E81E79378>,,,2.0,2.7478522999990673,2.0,2.5137285999990127,0.0,2.3976282000003266,<function functiondiffA at 0x0000022E80ADC268>,<function functiondiffB at 0x0000022E80ADC730>,<function functiondiffC at 0x0000022E80ADCBF8>,,,,,946.2331047000007,978.3284494,None,975.5619531000011,None,973.1453436000011,None,27,001,2022_Jul_20_1705,2leo,2021.2.3,59.98497976104575,
3,31,Plan your order at a restaurant    ,Stimuli/31A1.jpg,Stimuli/31A2.jpg,Stimuli/31A3.jpg,Stimuli/31B1.jpg,Stimuli/31B2.jpg,Stimuli/31B3.jpg,Stimuli/31C1.jpg,Stimuli/31C2.jpg,Stimuli/31C3.jpg,,,,,0,12,12,31,,,,,,,,979.9450488000002,None,980.9450666000012,None,986.9452555000025,None,"[0.304, -0.26]","[0.07, 0.393]","[-0.378, -0.136]","[-0.203, -0.347]","[0.399, -0.003]","[-0.2, 0.346]","[0.066, -0.395]","[0.306, 0.255]","[-0.377, 0.138]",,3.5216505599928496,10.205466059993341,15.305506059994514,"[0.2740740740740741, -0.18333333333333332, 0.3148148148148148]","[-0.22037037037037038, -0.30648148148148147, 0.26666666666666666]","[1, 1, 1]","[0, 0, 0]","[0, 0, 0]","[3.5104147999991255, 10.193994399996882, 15.293695799999114]",0.010810459993081167,15.304231759993854,['A1'],['B1'],['C2'],['blue'],['yellow'],['salmon'],1005.3443608000016,None,3.0,2.3464723999968555,1005.3443608000016,None,1012.0943179000024,None,8.0,2.581923599998845,1007.7777516000024,None,9.0,4.2812500999971235,1016.0610708999993,None,4.0,5.131943000000319,<function functionImportanceB at 0x0000022E80ADC1E0>,<function functionImportanceC at 0x0000022E806EBB70>,<function functionImportanceA at 0x0000022E80ADCC80>,,,10.0,2.681251900001371,8.0,5.131943000000319,3.0,2.864647200000036,<function functiondiffC at 0x0000022E80ADC048>,<function functiondiffA at 0x0000022E80ADCF28>,<function functiondiffB at 0x0000022E80ADC400>,,,,,989.5832405000001,1019.7776508999996,None,1025.4774295000025,None,1022.927066100001,None,27,001,2022_Jul_20_1705,2leo,2021.2.3,59.98497976104575,
3,11,Plan a hike in nature on a free day,Stimuli/11A1.jpg,Stimuli/11A2.jpg,Stimuli/11A3.jpg,Stimuli/11B1.jpg,Stimuli/11B2.jpg,Stimuli/11B3.jpg,Stimuli/11C1.jpg,Stimuli/11C2.jpg,Stimuli/11C3.jpg,,,,,0,13,13,11,,,,,,,,1027.676931500002,None,1028.6772324000012,None,1034.6771850000005,None,"[0.304, -0.26]","[0.07, 0.393]","[-0.378, -0.136]","[0.066, -0.395]","[0.306, 0.255]","[-0.377, 0.138]","[-0.203, -0.347]","[0.399, -0.003]","[-0.2, 0.346]",,16.08881253999425,4.156344539995189,10.822871039996244,"[-0.337037037037037, 0.32037037037037036, -0.3592592592592593]","[0.11851851851851852, -0.018518518518518517, -0.08333333333333333]","[1, 1, 1]","[0, 0, 0]","[0, 0, 0]","[4.145320499999798, 10.811687800000072, 16.078039899999567]",0.010147039996809326,16.088110039996536,['A3'],['B3'],['C2'],['salmon'],['blue'],['yellow'],1052.4099497000025,None,4.0,2.114055300000473,1052.4099497000025,None,1060.4432847999997,None,7.0,4.265174800002569,1064.726458000001,None,10.0,2.731861600001139,1054.6267350000016,None,3.0,5.831140700000105,<function functionImportanceA at 0x0000022E80ADCD90>,<function functionImportanceC at 0x0000022E806EB6A8>,<function functionImportanceB at 0x0000022E806EBAE8>,,,1.0,3.297754700000951,9.0,5.831140700000105,1.0,2.2476656999970146,<function functiondiffA at 0x0000022E80ADC378>,<function functiondiffC at 0x0000022E83D4E7B8>,<function functiondiffB at 0x0000022E80ADC6A8>,,,,,1035.847285300002,1069.7096621000019,None,1072.9262481000005,None,1067.4430892000019,None,27,001,2022_Jul_20_1705,2leo,2021.2.3,59.98497976104575,
3,1,Plan how to study for an exam,Stimuli/1A1.jpg,Stimuli/1A2.jpg,Stimuli/1A3.jpg,Stimuli/1B1.jpg,Stimuli/1B2.jpg,Stimuli/1B3.jpg,Stimuli/1C1.jpg,Stimuli/1C2.jpg,Stimuli/1C3.jpg,,,,,0,14,14,1,,,,,,,,1075.7425565000012,None,1076.7426427999999,None,1082.7425640000001,None,"[0.066, -0.395]","[-0.377, 0.138]","[0.306, 0.255]","[0.304, -0.26]","[-0.378, -0.136]","[0.07, 0.393]","[-0.203, -0.347]","[-0.2, 0.346]","[0.399, -0.003]",,11.014334280000185,14.281162680003035,3.232063580002432,"[0.35462962962962963, 0.05555555555555555, 0.046296296296296294]","[0.01574074074074074, -0.3611111111111111, 0.3675925925925926]","[1, 1, 1]","[0, 0, 0]","[0, 0, 0]","[3.2245341000016197, 11.007471000000805, 14.273832300001231]",0.006447780000598868,14.280213780002668,['A1'],['B3'],['C3'],['blue'],['yellow'],['salmon'],1098.6085811000012,None,10.0,1.9803605999986758,1098.6085811000012,None,1105.2586709000025,None,10.0,2.1322106000006897,1100.6587153,None,10.0,4.614557299999433,1107.4419072000019,None,4.0,3.2654722000006586,<function functionImportanceB at 0x0000022E83D4EB70>,<function functionImportanceC at 0x0000022E83D4E598>,<function functionImportanceA at 0x0000022E80ADC158>,,,0.0,1.6312125000004016,0.0,3.2654722000006586,9.0,2.4477599000019836,<function functiondiffA at 0x0000022E80ADCAE8>,<function functiondiffC at 0x0000022E83D4E048>,<function functiondiffB at 0x0000022E80ADCA60>,,,,,1083.8510717999998,1113.1418559000012,None,1114.7250993000016,None,1110.6919638,None,27,001,2022_Jul_20_1705,2leo,2021.2.3,59.98497976104575,
3,5,Plan a birthday party for your younger self when you turn eight,Stimuli/5A1.jpg,Stimuli/5A2.jpg,Stimuli/5A3.jpg,Stimuli/5B1.jpg,Stimuli/5B2.jpg,Stimuli/5B3.jpg,Stimuli/5C1.jpg,Stimuli/5C2.jpg,Stimuli/5C3.jpg,,,,,0,15,15,5,,,,,,,,1124.2580911000005,None,1125.2582185000028,None,1131.2581295000018,None,"[0.399, -0.003]","[-0.2, 0.346]","[-0.203, -0.347]","[0.306, 0.255]","[-0.377, 0.138]","[0.066, -0.395]","[0.07, 0.393]","[-0.378, -0.136]","[0.304, -0.26]",,10.464522639984352,14.31471773998419,17.71485853998456,"[-0.14814814814814814, -0.34814814814814815, 0.37962962962962965]","[0.4064814814814815, 0.15925925925925927, -0.2814814814814815]","[1, 1, 1]","[0, 0, 0]","[0, 0, 0]","[10.456108700000186, 14.306068699999742, 17.705825699998968]",0.007897939984104596,17.71371013998578,['A2'],['B2'],['C3'],['salmon'],['blue'],['yellow'],1155.240479600001,None,7.0,2.8317376999984845,1155.240479600001,None,1158.7598803,None,6.0,4.481555800000933,1171.4400507999999,None,6.0,6.431634200002009,1165.2071362000024,None,1.0,7.248034699998243,<function functionImportanceC at 0x0000022E83D4E2F0>,<function functionImportanceA at 0x0000022E83D4E9D8>,<function functionImportanceB at 0x0000022E83D4EAE8>,,,0.0,3.7315044999995735,4.0,7.248034699998243,8.0,3.948020700001507,<function functiondiffC at 0x0000022E83D4EC80>,<function functiondiffA at 0x0000022E83D4E378>,<function functiondiffB at 0x0000022E83D4EBF8>,,,,,1137.069802500002,1176.4567779999998,None,1187.4400107000001,None,1183.9067362000023,None,27,001,2022_Jul_20_1705,2leo,2021.2.3,59.98497976104575,
3,36,Plan your shopping for new clothing,Stimuli/36A1.jpg,Stimuli/36A2.jpg,Stimuli/36A3.jpg,Stimuli/36B1.jpg,Stimuli/36B2.jpg,Stimuli/36B3.jpg,Stimuli/36C1.jpg,Stimuli/36C2.jpg,Stimuli/36C3.jpg,,,,,0,16,16,36,,,,,,,,1190.339409100001,None,1191.3398350999996,None,1197.3397638999995,None,"[0.066, -0.395]","[0.306, 0.255]","[-0.377, 0.138]","[0.304, -0.26]","[0.07, 0.393]","[-0.378, -0.136]","[-0.203, -0.347]","[0.399, -0.003]","[-0.2, 0.346]",,21.937553139996453,12.488245839998854,5.48851313999694,"[0.4564814814814815, -0.3592592592592593, 0.32407407407407407]","[0.005555555555555556, -0.09722222222222222, 0.2722222222222222]","[1, 1, 1]","[0, 0, 0]","[0, 0, 0]","[5.486079799997242, 12.48617000000013, 21.93582929999684]",0.0012130399991292506,21.936836939996283,['A2'],['B3'],['C2'],['yellow'],['salmon'],['blue'],1220.9387004000018,None,4.0,2.6133903000009013,1220.9387004000018,None,1223.6389823999998,None,8.0,3.4309428999986267,1227.1055557,None,2.0,2.9986672999984876,1230.1555246000025,None,4.0,3.798268599999574,<function functionImportanceC at 0x0000022E83D4EA60>,<function functionImportanceB at 0x0000022E83D4E620>,<function functionImportanceA at 0x0000022E83D4E0D0>,,,8.0,3.281215800001519,1.0,3.798268599999574,7.0,3.014122000000498,<function functiondiffA at 0x0000022E83D4EF28>,<function functiondiffC at 0x0000022E80ADCE18>,<function functiondiffB at 0x0000022E83D4E510>,,,,,1198.5185115000022,1236.905397300001,None,1240.8885929999997,None,1233.855350400001,None,27,001,2022_Jul_20_1705,2leo,2021.2.3,59.98497976104575,
3,40,Plan to see a sports event ,Stimuli/40A1.jpg,Stimuli/40A2.jpg,Stimuli/40A3.jpg,Stimuli/40B1.jpg,Stimuli/40B2.jpg,Stimuli/40B3.jpg,Stimuli/40C1.jpg,Stimuli/40C2.jpg,Stimuli/40C3.jpg,,,,,0,17,17,40,,,,,,,,1243.687967400001,None,1244.6883529000006,None,1250.6882755000006,None,"[-0.378, -0.136]","[0.07, 0.393]","[0.304, -0.26]","[-0.377, 0.138]","[0.306, 0.255]","[0.066, -0.395]","[-0.2, 0.346]","[0.399, -0.003]","[-0.203, -0.347]",,17.43320513999788,10.766863140001078,6.284011039999314,"[0.47129629629629627, 0.32222222222222224, 0.10555555555555556]","[-0.006481481481481481, 0.28888888888888886, 0.3509259259259259]","[1, 1, 1]","[0, 0, 0]","[0, 0, 0]","[6.268169700000726, 10.75128179999956, 17.417919399998937]",0.014785240000492195,17.4324649400005,['A2'],['B2'],['C2'],['salmon'],['yellow'],['blue'],1269.9208526000002,None,8.0,2.6962922000020626,1269.9208526000002,None,1280.0041500000007,None,8.0,2.7651723999988462,1276.2874223,None,10.0,3.84847329999684,1272.7041986000004,None,10.0,3.430849299998954,<function functionImportanceA at 0x0000022E83D4E840>,<function functionImportanceB at 0x0000022E80ADC9D8>,<function functionImportanceC at 0x0000022E840D7488>,,,0.0,2.7644897999998648,-0.0,3.430849299998954,2.0,2.9474970000010217,<function functiondiffA at 0x0000022E83D4E8C8>,<function functiondiffB at 0x0000022E83D4E1E0>,<function functiondiffC at 0x0000022E840D72F0>,,,,,1252.0190667000024,1288.503788500002,None,1285.7540387000008,None,1282.753983900002,None,27,001,2022_Jul_20_1705,2leo,2021.2.3,59.98497976104575,
3,33,Plan the items to decorate your Christmas tree,Stimuli/33A1.jpg,Stimuli/33A2.jpg,Stimuli/33A3.jpg,Stimuli/33B1.jpg,Stimuli/33B2.jpg,Stimuli/33B3.jpg,Stimuli/33C1.jpg,Stimuli/33C2.jpg,Stimuli/33C3.jpg,,,,,0,18,18,33,,,,,,,,1290.9533980000015,None,1291.9536928000016,None,1297.9536791000028,None,"[-0.378, -0.136]","[0.07, 0.393]","[0.304, -0.26]","[-0.2, 0.346]","[0.399, -0.003]","[-0.203, -0.347]","[-0.377, 0.138]","[0.306, 0.255]","[0.066, -0.395]",,12.54246253999736,7.277255539996986,10.776639539995813,"[-0.19814814814814816, 0.04722222222222222, -0.36203703703703705]","[-0.31203703703703706, -0.3685185185185185, -0.10277777777777777]","[1, 1, 1]","[0, 0, 0]","[0, 0, 0]","[7.275413999999728, 10.774203000000853, 12.541045900001336]",0.0010067399962281343,12.541791939998802,['A1'],['B3'],['C3'],['salmon'],['blue'],['yellow'],1312.6530306999994,None,1.0,4.063353200002894,1312.6530306999994,None,1319.2365456000007,None,-0.0,1.7818996999994852,1316.7863572999995,None,-0.0,2.414915100001963,1321.5364253000007,None,4.0,4.348215599999094,<function functionImportanceB at 0x0000022E840D70D0>,<function functionImportanceC at 0x0000022E840D77B8>,<function functionImportanceA at 0x0000022E80ADC2F0>,,,10.0,2.1812823000000208,9.0,4.348215599999094,1.0,3.26428599999781,<function functiondiffA at 0x0000022E80ADCEA0>,<function functiondiffB at 0x0000022E83D4E400>,<function functiondiffC at 0x0000022E840D7510>,,,,,1299.6413353999997,1330.836181300001,None,1328.636252700002,None,1325.4861307000028,None,27,001,2022_Jul_20_1705,2leo,2021.2.3,59.98497976104575,
3,43,Plan your dream house,Stimuli/43A1.jpg,Stimuli/43A2.jpg,Stimuli/43A3.jpg,Stimuli/43B1.jpg,Stimuli/43B2.jpg,Stimuli/43B3.jpg,Stimuli/43C1.jpg,Stimuli/43C2.jpg,Stimuli/43C3.jpg,,,,,0,19,19,43,,,,,,,,1334.0022740999993,None,1335.002526700002,None,1341.0026424999996,None,"[-0.2, 0.346]","[-0.203, -0.347]","[0.399, -0.003]","[-0.378, -0.136]","[0.304, -0.26]","[0.07, 0.393]","[-0.377, 0.138]","[0.066, -0.395]","[0.306, 0.255]",,14.053301199997804,3.9704345999962243,8.054072399998404,"[0.25833333333333336, 0.0712962962962963, -0.16574074074074074]","[-0.2537037037037037, -0.34629629629629627, -0.2814814814814815]","[1, 1, 1]","[0, 0, 0]","[0, 0, 0]","[3.9688825999983237, 8.052273199999036, 14.051957299998321]",0.0007919999989098869,14.05264189999798,['A2'],['B2'],['C2'],['yellow'],['salmon'],['blue'],1356.7018306999998,None,8.0,2.3133371000003535,1356.7018306999998,None,1359.0711848000028,None,10.0,3.680741799998941,1365.1352985000012,None,8.0,2.698309799998242,1362.8186244999997,None,2.0,2.3483634000003804,<function functionImportanceC at 0x0000022E840D7158>,<function functionImportanceA at 0x0000022E840D78C8>,<function functionImportanceB at 0x0000022E840D7A60>,,,1.0,2.2979840000007243,2.0,2.3483634000003804,10.0,2.797798600000533,<function functiondiffA at 0x0000022E806EBC80>,<function functiondiffB at 0x0000022E83D4EEA0>,<function functiondiffC at 0x0000022E83D4E488>,,,,,1342.1641984000016,1372.968492,None,1370.6516725000001,None,1367.8185503999994,None,27,001,2022_Jul_20_1705,2leo,2021.2.3,59.98497976104575,
3,6,Plan your wedding,Stimuli/6A1.jpg,Stimuli/6A2.jpg,Stimuli/6A3.jpg,Stimuli/6B1.jpg,Stimuli/6B2.jpg,Stimuli/6B3.jpg,Stimuli/6C1.jpg,Stimuli/6C2.jpg,Stimuli/6C3.jpg,,,,,0,20,20,6,,,,,,,,1374.9345532000007,None,1375.9348403000004,None,1381.9349479000011,None,"[0.399, -0.003]","[-0.203, -0.347]","[-0.2, 0.346]","[0.07, 0.393]","[0.304, -0.26]","[-0.378, -0.136]","[0.306, 0.255]","[0.066, -0.395]","[-0.377, 0.138]",,8.892080939989683,14.275051039989194,20.04192453998985,"[-0.18796296296296297, 0.08518518518518518, 0.3194444444444444]","[-0.3138888888888889, 0.3814814814814815, 0.25092592592592594]","[1, 1, 1]","[0, 0, 0]","[0, 0, 0]","[8.883391799998208, 14.266162899999472, 20.03280779999841]",0.00817723998989095,20.040791839986923,['A2'],['B1'],['C1'],['yellow'],['salmon'],['blue'],1407.5839382000013,None,2.0,2.8305981999983487,1407.5839382000013,None,1411.6840271,None,1.0,3.913443500001449,1416.0505120000016,None,3.0,5.615053800000169,1421.2032997999995,None,7.0,7.19807260000016,<function functionImportanceC at 0x0000022E840D7950>,<function functionImportanceB at 0x0000022E840D7F28>,<function functionImportanceA at 0x0000022E840D7840>,,,8.0,3.6981403999998292,9.0,7.19807260000016,3.0,3.0804122000008647,<function functiondiffB at 0x0000022E840D7378>,<function functiondiffA at 0x0000022E83D4E158>,<function functiondiffC at 0x0000022E80ADC0D0>,,,,,1387.0862149999994,1434.4333213000027,None,1427.6168309000022,None,1431.2334152000003,None,27,001,2022_Jul_20_1705,2leo,2021.2.3,59.98497976104575,
3,2,Plan which ingredients you want to use for cooking dinner today,Stimuli/2A1.jpg,Stimuli/2A2.jpg,Stimuli/2A3.jpg,Stimuli/2B1.jpg,Stimuli/2B2.jpg,Stimuli/2B3.jpg,Stimuli/2C1.jpg,Stimuli/2C2.jpg,Stimuli/2C3.jpg,,,,,0,21,21,2,,,,,,,,1438.0164059000017,None,1439.0166344999998,None,1445.016770000002,None,"[-0.203, -0.347]","[0.399, -0.003]","[-0.2, 0.346]","[0.066, -0.395]","[0.306, 0.255]","[-0.377, 0.138]","[0.304, -0.26]","[0.07, 0.393]","[-0.378, -0.136]",,14.287700019987824,18.904147419987567,6.5714093199858326,"[0.2462962962962963, -0.17592592592592593, 0.016666666666666666]","[-0.19907407407407407, 0.325, -0.3425925925925926]","[1, 1, 1]","[0, 0, 0]","[0, 0, 0]","[6.561579200002598, 14.278194500002428, 18.894631000002846]",0.008795819987426512,18.90323911998712,['A3'],['B1'],['C1'],['salmon'],['blue'],['yellow'],1470.6322664,None,9.0,2.329247099998611,1470.6322664,None,1480.7655572000003,None,6.0,3.5652964000000793,1476.3990618000025,None,9.0,7.0644328000016685,1484.8488061999997,None,6.0,4.748154799999611,<function functionImportanceB at 0x0000022E840D7BF8>,<function functionImportanceC at 0x0000022E840D7048>,<function functionImportanceA at 0x0000022E840D7AE8>,,,-0.0,3.214415200000076,7.0,4.748154799999611,8.0,6.414456800001062,<function functiondiffB at 0x0000022E840D79D8>,<function functiondiffC at 0x0000022E840D7E18>,<function functiondiffA at 0x0000022E840D7D90>,,,,,1451.2728767000008,1491.831925800001,None,1489.2523419999998,None,1494.7151808000017,None,27,001,2022_Jul_20_1705,2leo,2021.2.3,59.98497976104575,
3,24,Plan your Monday morning on a workday ,Stimuli/24A1.jpg,Stimuli/24A2.jpg,Stimuli/24A3.jpg,Stimuli/24B1.jpg,Stimuli/24B2.jpg,Stimuli/24B3.jpg,Stimuli/24C1.jpg,Stimuli/24C2.jpg,Stimuli/24C3.jpg,,,,,0,22,22,24,,,,,,,,1500.3479551000019,None,1501.3484568999993,None,1507.3482925999997,None,"[0.07, 0.393]","[-0.378, -0.136]","[0.304, -0.26]","[0.399, -0.003]","[-0.2, 0.346]","[-0.203, -0.347]","[0.306, 0.255]","[-0.377, 0.138]","[0.066, -0.395]",,9.905065639995883,6.938933839996025,3.039280239998334,"[0.046296296296296294, -0.19722222222222222, 0.08796296296296297]","[-0.3787037037037037, -0.3296296296296296, 0.4425925925925926]","[1, 1, 1]","[0, 0, 0]","[0, 0, 0]","[3.028254400000151, 6.92810350000218, 9.894690500001161]",0.009953839999070624,9.904370439995546,['A1'],['B3'],['C3'],['salmon'],['yellow'],['blue'],1518.8975777000014,None,10.0,1.5796554000007745,1518.8975777000014,None,1526.6973896000018,None,10.0,2.5980930000005173,1522.9977306,None,6.0,3.731600900002377,1520.5814905000007,None,10.0,2.364475400001538,<function functionImportanceA at 0x0000022E840D76A8>,<function functionImportanceB at 0x0000022E89585048>,<function functionImportanceC at 0x0000022E89585158>,,,2.0,2.697596000001795,-0.0,2.364475400001538,0.0,1.8643418999999994,<function functiondiffB at 0x0000022E840D7400>,<function functiondiffC at 0x0000022E840D7C80>,<function functiondiffA at 0x0000022E840D7268>,,,,,1508.5184628000025,1531.9809034000027,None,1529.2643822000027,None,1534.1641646999997,None,27,001,2022_Jul_20_1705,2leo,2021.2.3,59.98497976104575,
3,34,Plan what car you want to buy,Stimuli/34A1.jpg,Stimuli/34A2.jpg,Stimuli/34A3.jpg,Stimuli/34B1.jpg,Stimuli/34B2.jpg,Stimuli/34B3.jpg,Stimuli/34C1.jpg,Stimuli/34C2.jpg,Stimuli/34C3.jpg,,,,,0,23,23,34,,,,,,,,1535.5469637999995,None,1536.5473902000012,None,1542.5474208000014,None,"[-0.203, -0.347]","[-0.2, 0.346]","[0.399, -0.003]","[0.304, -0.26]","[-0.378, -0.136]","[0.07, 0.393]","[0.066, -0.395]","[-0.377, 0.138]","[0.306, 0.255]",,6.341923519990814,13.20887371999197,3.02613011998983,"[-0.35185185185185186, -0.18055555555555555, 0.3037037037037037]","[0.1361111111111111, -0.30833333333333335, -0.22685185185185186]","[1, 1, 1]","[0, 0, 0]","[0, 0, 0]","[3.014843100001599, 6.331241600000794, 13.197910099999717]",0.010244719989714213,13.208077719991707,['A1'],['B1'],['C2'],['salmon'],['yellow'],['blue'],1559.3300801000005,None,6.0,1.6636627000007138,1559.3300801000005,None,1568.9132659000024,None,5.0,3.0148394999996526,1565.7472366000002,None,7.0,4.098335999999108,1562.0801267000024,None,10.0,3.7145536999996693,<function functionImportanceA at 0x0000022E840D7D08>,<function functionImportanceB at 0x0000022E83D4E268>,<function functionImportanceC at 0x0000022E89585950>,,,6.0,2.7144814000021142,2.0,3.7145536999996693,0.0,2.4645170999974653,<function functiondiffC at 0x0000022E81E79950>,<function functiondiffB at 0x0000022E81E79AE8>,<function functiondiffA at 0x0000022E840D7730>,,,,,1545.6640121000019,1571.8965224000021,None,1574.579654600002,None,1577.4129116000004,None,27,001,2022_Jul_20_1705,2leo,2021.2.3,59.98497976104575,
3,8,Plan the interior of your living-room ,Stimuli/8A1.jpg,Stimuli/8A2.jpg,Stimuli/8A3.jpg,Stimuli/8B1.jpg,Stimuli/8B2.jpg,Stimuli/8B3.jpg,Stimuli/8C1.jpg,Stimuli/8C2.jpg,Stimuli/8C3.jpg,,,,,0,24,24,8,,,,,,,,1579.045896300002,None,1580.0461982000015,None,1586.0461327000012,None,"[0.07, 0.393]","[-0.378, -0.136]","[0.304, -0.26]","[0.399, -0.003]","[-0.2, 0.346]","[-0.203, -0.347]","[0.306, 0.255]","[-0.377, 0.138]","[0.066, -0.395]",,12.66364029999022,15.263648699990881,5.6805247999909625,"[0.2759259259259259, 0.2462962962962963, -0.1648148148148148]","[0.2111111111111111, -0.20555555555555555, -0.2935185185185185]","[1, 1, 1]","[0, 0, 0]","[0, 0, 0]","[5.667501600000833, 12.650992599999881, 15.250714600002539]",0.012036399988573976,15.262714799988316,['A3'],['B3'],['C1'],['yellow'],['blue'],['salmon'],1606.645403300001,None,4.0,2.130687599998055,1606.645403300001,None,1620.0966260999994,None,1.0,4.915181199998187,1614.1954984000004,None,5.0,5.748438399998122,1608.8622544999998,None,8.0,3.581153600000107,<function functionImportanceA at 0x0000022E840D7EA0>,<function functionImportanceB at 0x0000022E89585378>,<function functionImportanceC at 0x0000022E895852F0>,,,9.0,3.2480845999998564,6.0,3.581153600000107,7.0,2.7809509999970032,<function functiondiffA at 0x0000022E806EB268>,<function functiondiffB at 0x0000022E80ADC488>,<function functiondiffC at 0x0000022E80ADCD08>,,,,,1590.9287767999995,1629.7283728000002,None,1626.4285066000011,None,1623.0952285000021,None,27,001,2022_Jul_20_1705,2leo,2021.2.3,59.98497976104575,
3,21,Plan your sandwich for lunch,Stimuli/21A1.jpg,Stimuli/21A2.jpg,Stimuli/21A3.jpg,Stimuli/21B1.jpg,Stimuli/21B2.jpg,Stimuli/21B3.jpg,Stimuli/21C1.jpg,Stimuli/21C2.jpg,Stimuli/21C3.jpg,,,,,0,25,25,21,,,,,,,,1631.6285908000027,None,1632.628213600001,None,1638.6281811000008,None,"[0.07, 0.393]","[0.304, -0.26]","[-0.378, -0.136]","[0.306, 0.255]","[0.066, -0.395]","[-0.377, 0.138]","[0.399, -0.003]","[-0.203, -0.347]","[-0.2, 0.346]",,15.332360480002535,7.365646879999986,10.298930479999399,"[-0.31574074074074077, 0.40185185185185185, -0.32685185185185184]","[0.14444444444444443, 0.044444444444444446, -0.062037037037037036]","[1, 1, 1]","[0, 0, 0]","[0, 0, 0]","[7.349763900001562, 10.282942900001217, 15.316761000001861]",0.015012179999757791,15.33131128000241,['A3'],['B3'],['C1'],['blue'],['salmon'],['yellow'],1655.6108153000023,None,7.0,1.5467526000029466,1655.6108153000023,None,1657.2942933000013,None,10.0,3.047896000000037,1660.3273843999996,None,2.0,2.847977699999319,1663.1606401000026,None,4.0,4.164870100001281,<function functionImportanceC at 0x0000022E89585F28>,<function functionImportanceB at 0x0000022E89585510>,<function functionImportanceA at 0x0000022E89585268>,,,6.0,3.8804420999986178,-0.0,4.164870100001281,8.0,3.098308700002235,<function functiondiffB at 0x0000022E89585D08>,<function functiondiffC at 0x0000022E89585E18>,<function functiondiffA at 0x0000022E89585730>,,,,,1639.8085981000004,1671.1936681000007,None,1667.3107866000028,None,1674.2938237000017,None,27,001,2022_Jul_20_1705,2leo,2021.2.3,59.98497976104575,
3,14,Plan your own Pizza for dinner,Stimuli/14A1.jpg,Stimuli/14A2.jpg,Stimuli/14A3.jpg,Stimuli/14B1.jpg,Stimuli/14B2.jpg,Stimuli/14B3.jpg,Stimuli/14C1.jpg,Stimuli/14C2.jpg,Stimuli/14C3.jpg,,,,,0,26,26,14,,,,,,,,1676.9103271000022,None,1677.9104340000013,None,1683.9103208000015,None,"[-0.2, 0.346]","[0.399, -0.003]","[-0.203, -0.347]","[-0.378, -0.136]","[0.07, 0.393]","[0.304, -0.26]","[-0.377, 0.138]","[0.306, 0.255]","[0.066, -0.395]",,6.9547667799997726,14.821544779999385,2.75522207999893,"[0.3824074074074074, -0.14444444444444443, 0.04722222222222222]","[0.22870370370370371, 0.31203703703703706, 0.3277777777777778]","[1, 1, 1]","[0, 0, 0]","[0, 0, 0]","[2.744530300002225, 6.944679000000178, 14.811100900002202]",0.009692980002000695,14.82057998000164,['A1'],['B2'],['C2'],['yellow'],['salmon'],['blue'],1700.3928330000017,None,5.0,3.2639407999995456,1700.3928330000017,None,1714.9259459999994,None,5.0,5.648560099998576,1711.0593542999995,None,3.0,3.9147622999989835,1703.7095775000016,None,6.0,7.264437700003327,<function functionImportanceA at 0x0000022E89585AE8>,<function functionImportanceB at 0x0000022E89585BF8>,<function functionImportanceC at 0x0000022E89585D90>,,,7.0,2.614006399999198,3.0,7.264437700003327,2.0,3.298234699999739,<function functiondiffB at 0x0000022E895857B8>,<function functiondiffC at 0x0000022E89585C80>,<function functiondiffA at 0x0000022E89585B70>,,,,,1685.0956939999996,1723.2092727000017,None,1720.5926670000008,None,1726.9258771000023,None,27,001,2022_Jul_20_1705,2leo,2021.2.3,59.98497976104575,
3,37,Plan your cleaning routine ,Stimuli/37A1.jpg,Stimuli/37A2.jpg,Stimuli/37A3.jpg,Stimuli/37B1.jpg,Stimuli/37B2.jpg,Stimuli/37B3.jpg,Stimuli/37C1.jpg,Stimuli/37C2.jpg,Stimuli/37C3.jpg,,,,,0,27,27,37,,,,,,,,1729.7444065000018,None,1730.7588896000016,None,1736.759047800002,None,"[-0.378, -0.136]","[0.07, 0.393]","[0.304, -0.26]","[-0.2, 0.346]","[0.399, -0.003]","[-0.203, -0.347]","[-0.377, 0.138]","[0.306, 0.255]","[0.066, -0.395]",,8.935128760003863,7.701854460003233,3.635670260002371,"[0.38796296296296295, -0.1962962962962963, 0.08611111111111111]","[0.21666666666666667, 0.2824074074074074, 0.3333333333333333]","[1, 1, 1]","[0, 0, 0]","[0, 0, 0]","[3.626331100000243, 7.6927556000009645, 8.926222300000518]",0.008315860002767295,8.934234760003164,['A2'],['B1'],['C2'],['salmon'],['blue'],['yellow'],1747.3083436000015,None,10.0,2.4802082999995037,1747.3083436000015,None,1755.0249570000015,None,1.0,3.3817653999976756,1749.8583642000012,None,10.0,2.464349300000322,1752.3417289999998,None,6.0,2.6814024000013887,<function functionImportanceB at 0x0000022E89585A60>,<function functionImportanceA at 0x0000022E840D7598>,<function functionImportanceC at 0x0000022E895858C8>,,,0.0,2.3313202999997884,4.0,2.6814024000013887,0.0,3.7808455000013055,<function functiondiffA at 0x0000022E895851E0>,<function functiondiffB at 0x0000022E895859D8>,<function functiondiffC at 0x0000022E895856A8>,,,,,1737.8967004000006,1764.5580356000028,None,1762.2083192000027,None,1758.3916076999994,None,27,001,2022_Jul_20_1705,2leo,2021.2.3,59.98497976104575,
3,10,Plan a restaurant visit with your family on the weekend ,Stimuli/10A1.jpg,Stimuli/10A2.jpg,Stimuli/10A3.jpg,Stimuli/10B1.jpg,Stimuli/10B2.jpg,Stimuli/10B3.jpg,Stimuli/10C1.jpg,Stimuli/10C2.jpg,Stimuli/10C3.jpg,,,,,0,28,28,10,,,,,,,,1766.575057500002,None,1767.5746201000002,None,1773.574545200001,None,"[0.07, 0.393]","[-0.378, -0.136]","[0.304, -0.26]","[0.399, -0.003]","[-0.2, 0.346]","[-0.203, -0.347]","[0.306, 0.255]","[-0.377, 0.138]","[0.066, -0.395]",,21.18692451998868,7.170958419988892,4.338125719990785,"[0.07314814814814814, -0.15185185185185185, 0.07314814814814814]","[-0.42777777777777776, -0.30462962962962964, 0.3333333333333333]","[1, 1, 1]","[0, 0, 0]","[0, 0, 0]","[4.333480299999792, 7.166533499999787, 21.182966399999714]",0.003549219989508856,21.18629811998835,['A1'],['B3'],['C3'],['yellow'],['blue'],['salmon'],1799.1736277000018,None,9.0,2.7634314999995695,1799.1736277000018,None,1805.4570593000026,None,9.0,3.348207499999262,1811.5424588999995,None,5.0,6.0985145999984525,1802.1237631000004,None,8.0,3.4475448000011966,<function functionImportanceA at 0x0000022E840D7620>,<function functionImportanceC at 0x0000022E89A37488>,<function functionImportanceB at 0x0000022E89A37378>,,,0.0,3.3810464999987744,6.0,3.4475448000011966,7.0,4.031229500000336,<function functiondiffB at 0x0000022E89585EA0>,<function functiondiffA at 0x0000022E89585840>,<function functiondiffC at 0x0000022E89A37158>,,,,,1777.5232576000017,1822.3733188000006,None,1815.7068737000009,None,1818.3401422000024,None,27,001,2022_Jul_20_1705,2leo,2021.2.3,59.98497976104575,
3,13,Plan a romantic date this weekend,Stimuli/13A1.jpg,Stimuli/13A2.jpg,Stimuli/13A3.jpg,Stimuli/13B1.jpg,Stimuli/13B2.jpg,Stimuli/13B3.jpg,Stimuli/13C1.jpg,Stimuli/13C2.jpg,Stimuli/13C3.jpg,,,,,0,29,29,13,,,,,,,,1826.8072532000006,None,1827.806500900002,None,1833.8064368000014,None,"[-0.203, -0.347]","[-0.2, 0.346]","[0.399, -0.003]","[0.066, -0.395]","[-0.377, 0.138]","[0.306, 0.255]","[0.304, -0.26]","[-0.378, -0.136]","[0.07, 0.393]",,7.978955800001131,5.245612399998208,11.662619099999574,"[0.025925925925925925, -0.1361111111111111, 0.28888888888888886]","[-0.4222222222222222, 0.287962962962963, -0.2898148148148148]","[1, 1, 1]","[0, 0, 0]","[0, 0, 0]","[5.240119599999161, 7.9736756999991485, 11.656922699999996]",0.004775699999299832,11.661425499998586,['A2'],['B1'],['C1'],['yellow'],['salmon'],['blue'],1847.1889785000021,None,10.0,2.3807290000004286,1847.1889785000021,None,1849.6392244000017,None,8.0,3.6145102999980736,1857.3556758000013,None,2.0,4.898498700000346,1853.289100500002,None,3.0,3.948409399999946,<function functionImportanceC at 0x0000022E89A37BF8>,<function functionImportanceA at 0x0000022E89A37D08>,<function functionImportanceB at 0x0000022E89A37A60>,,,3.0,2.1645548999986204,1.0,3.948409399999946,1.0,2.9477131999992707,<function functiondiffA at 0x0000022E89585620>,<function functiondiffB at 0x0000022E89585488>,<function functiondiffC at 0x0000022E89A37400>,,,,,1835.0479446999998,1867.2554057000016,None,1865.1055583000016,None,1862.1223199000015,None,27,001,2022_Jul_20_1705,2leo,2021.2.3,59.98497976104575,
3,9,Plan a picnic with friends,Stimuli/9A1.jpg,Stimuli/9A2.jpg,Stimuli/9A3.jpg,Stimuli/9B1.jpg,Stimuli/9B2.jpg,Stimuli/9B3.jpg,Stimuli/9C1.jpg,Stimuli/9C2.jpg,Stimuli/9C3.jpg,,,,,0,30,30,9,,,,,,,,2033.401123300002,None,2034.4011436,None,2040.4009552999996,None,"[-0.203, -0.347]","[0.399, -0.003]","[-0.2, 0.346]","[0.304, -0.26]","[0.07, 0.393]","[-0.378, -0.136]","[0.066, -0.395]","[0.306, 0.255]","[-0.377, 0.138]",,5.480361939986324,13.230581439984235,3.4479461399860156,"[0.024074074074074074, -0.18518518518518517, 0.06111111111111111]","[-0.3888888888888889, -0.30092592592592593, 0.37222222222222223]","[1, 1, 1]","[0, 0, 0]","[0, 0, 0]","[3.4457379000014043, 5.478692799999408, 13.228568099999393]",0.001224339986947598,13.229678839987173,['A1'],['B2'],['C1'],['yellow'],['salmon'],['blue'],2059.5001322999997,None,9.0,2.6804426000016974,2059.5001322999997,None,2074.3843608999996,None,10.0,3.898402899998473,2063.5170196,None,7.0,10.664649599999393,2078.3329989000013,None,1.0,6.898456800001441,<function functionImportanceB at 0x0000022E89A377B8>,<function functionImportanceC at 0x0000022E89A37268>,<function functionImportanceA at 0x0000022E89A376A8>,,,7.0,2.7148706000007223,0.0,6.898456800001441,1.0,2.864278100001684,<function functiondiffA at 0x0000022E80ADC840>,<function functiondiffB at 0x0000022E89585400>,<function functiondiffC at 0x0000022E840D7B70>,,,,,2045.807383200001,2089.799480400001,None,2086.9831537000027,None,2084.184347000002,None,27,001,2022_Jul_20_1705,2leo,2021.2.3,59.98497976104575,
3,4,Plan a game night at your place,Stimuli/4A1.jpg,Stimuli/4A2.jpg,Stimuli/4A3.jpg,Stimuli/4B1.jpg,Stimuli/4B2.jpg,Stimuli/4B3.jpg,Stimuli/4C1.jpg,Stimuli/4C2.jpg,Stimuli/4C3.jpg,,,,,0,31,31,4,,,,,,,,2091.400642200002,None,2092.4161002,None,2098.416064000001,None,"[-0.203, -0.347]","[0.399, -0.003]","[-0.2, 0.346]","[0.066, -0.395]","[0.306, 0.255]","[-0.377, 0.138]","[0.304, -0.26]","[0.07, 0.393]","[-0.378, -0.136]",,4.67579105999539,2.0761478599961265,6.709708259997569,"[-0.35833333333333334, -0.1398148148148148, 0.07685185185185185]","[0.1712962962962963, 0.33425925925925926, 0.35]","[1, 1, 1]","[0, 0, 0]","[0, 0, 0]","[2.066659400003118, 4.66655300000275, 6.700059400001919]",0.008632459994259989,6.7084488599939505,['A3'],['B3'],['C2'],['yellow'],['salmon'],['blue'],2109.0489276000008,None,10.0,2.5135699000020395,2109.0489276000008,None,2118.982211900002,None,9.0,4.798519799998758,2122.4655463000017,None,10.0,1.9154378999992332,2112.6656072000005,None,2.0,5.980777299999318,<function functionImportanceA at 0x0000022E89A37D90>,<function functionImportanceC at 0x0000022E83D4E950>,<function functionImportanceB at 0x0000022E89A37840>,,,0.0,1.781601700000465,-0.0,5.980777299999318,2.0,2.9132514000011724,<function functiondiffC at 0x0000022E89A378C8>,<function functiondiffB at 0x0000022E89A37730>,<function functiondiffA at 0x0000022E89A37950>,,,,,2101.882301100002,2124.6985688000022,None,2127.5652599999994,None,2129.665405400003,None,27,001,2022_Jul_20_1705,2leo,2021.2.3,59.98497976104575,
3,20,Plan a tea party with your friends,Stimuli/20A1.jpg,Stimuli/20A2.jpg,Stimuli/20A3.jpg,Stimuli/20B1.jpg,Stimuli/20B2.jpg,Stimuli/20B3.jpg,Stimuli/20C1.jpg,Stimuli/20C2.jpg,Stimuli/20C3.jpg,,,,,0,32,32,20,,,,,,,,2131.8150375000005,None,2132.814942000001,None,2138.8151166000025,None,"[-0.378, -0.136]","[0.07, 0.393]","[0.304, -0.26]","[-0.377, 0.138]","[0.306, 0.255]","[0.066, -0.395]","[-0.2, 0.346]","[0.399, -0.003]","[-0.203, -0.347]",,7.877645159995154,3.527831759995024,15.427969159994973,"[-0.3731481481481482, 0.041666666666666664, 0.34074074074074073]","[0.08518518518518518, 0.40555555555555556, 0.004629629629629629]","[1, 1, 1]","[0, 0, 0]","[0, 0, 0]","[3.5183218000020133, 7.868332099998952, 15.418202100001508]",0.008770259995799279,15.426682059995073,['A2'],['B1'],['C2'],['blue'],['yellow'],['salmon'],2158.3309334000005,None,2.0,2.530504900001688,2158.3309334000005,None,2166.280963100002,None,5.0,3.3817097999999532,2163.314362000001,None,1.0,5.314362099998107,2169.7141050000027,None,-0.0,4.0486705000002985,<function functionImportanceB at 0x0000022E89A37E18>,<function functionImportanceC at 0x0000022E89F516A8>,<function functionImportanceA at 0x0000022E83D4ED90>,,,6.0,3.231424800000241,10.0,4.0486705000002985,8.0,1.6648233000014443,<function functiondiffC at 0x0000022E89F511E0>,<function functiondiffB at 0x0000022E840D71E0>,<function functiondiffA at 0x0000022E89A37048>,,,,,2142.4437082000004,2173.697383400002,None,2177.3305204999997,None,2180.0473445000025,None,27,001,2022_Jul_20_1705,2leo,2021.2.3,59.98497976104575,
3,39,Plan what kind of watch you want to buy,Stimuli/39A1.jpg,Stimuli/39A2.jpg,Stimuli/39A3.jpg,Stimuli/39B1.jpg,Stimuli/39B2.jpg,Stimuli/39B3.jpg,Stimuli/39C1.jpg,Stimuli/39C2.jpg,Stimuli/39C3.jpg,,,,,0,33,33,39,,,,,,,,2181.2319255,None,2182.2471044000013,None,2188.247126500002,None,"[0.304, -0.26]","[-0.378, -0.136]","[0.07, 0.393]","[0.066, -0.395]","[-0.377, 0.138]","[0.306, 0.255]","[-0.203, -0.347]","[-0.2, 0.346]","[0.399, -0.003]",,7.439413980002428,2.822989480002434,11.239506080000865,"[0.027777777777777776, -0.3453703703703704, -0.19537037037037036]","[-0.37222222222222223, -0.07685185185185185, -0.3055555555555556]","[1, 1, 1]","[0, 0, 0]","[0, 0, 0]","[2.8120963999972446, 7.428702399996837, 11.228334099996573]",0.010208280000369996,11.238510680002946,['A2'],['B1'],['C1'],['salmon'],['blue'],['yellow'],2201.1465707000025,None,9.0,1.8805991999979597,2201.1465707000025,None,2207.513129500003,None,0.0,2.7485381999977108,2203.1298637,None,9.0,4.347486600003322,2210.229864500001,None,8.0,2.6819828000006964,<function functionImportanceB at 0x0000022E89F512F0>,<function functionImportanceC at 0x0000022E89F51400>,<function functionImportanceA at 0x0000022E89A37510>,,,0.0,1.7647051000021747,2.0,2.6819828000006964,2.0,2.631362399999489,<function functiondiffC at 0x0000022E89F51950>,<function functiondiffB at 0x0000022E89585598>,<function functiondiffA at 0x0000022E89A37C80>,,,,,2189.4333608000015,2212.896217900001,None,2215.6963101,None,2217.4796196999996,None,27,001,2022_Jul_20_1705,2leo,2021.2.3,59.98497976104575,
3,44,Plan a party at your place,Stimuli/44A1.jpg,Stimuli/44A2.jpg,Stimuli/44A3.jpg,Stimuli/44B1.jpg,Stimuli/44B2.jpg,Stimuli/44B3.jpg,Stimuli/44C1.jpg,Stimuli/44C2.jpg,Stimuli/44C3.jpg,,,,,0,34,34,44,,,,,,,,2219.6310417999994,None,2220.646075300003,None,2226.6461333000007,None,"[-0.377, 0.138]","[0.066, -0.395]","[0.306, 0.255]","[-0.378, -0.136]","[0.304, -0.26]","[0.07, 0.393]","[-0.2, 0.346]","[-0.203, -0.347]","[0.399, -0.003]",,8.93507996000335,6.135563960000582,3.3522933600033866,"[-0.11944444444444445, 0.07037037037037037, 0.05277777777777778]","[-0.28703703703703703, 0.36018518518518516, -0.38981481481481484]","[1, 1, 1]","[0, 0, 0]","[0, 0, 0]","[3.3511564000000362, 6.134620100001484, 8.93448730000091]",8.006000280147418e-05,8.934387660003267,['A2'],['B3'],['C2'],['salmon'],['blue'],['yellow'],2237.212080000001,None,10.0,1.6968869999982417,2237.212080000001,None,2241.745557000002,None,1.0,2.4822086000021955,2238.9790273,None,9.0,2.747632099999464,2244.2292890999997,None,9.0,2.5151191000004474,<function functionImportanceB at 0x0000022E89F51D08>,<function functionImportanceC at 0x0000022E89F51A60>,<function functionImportanceA at 0x0000022E89F51840>,,,-0.0,2.1303187999983493,2.0,2.5151191000004474,-0.0,2.2315882000002603,<function functiondiffA at 0x0000022E895850D0>,<function functiondiffB at 0x0000022E89A379D8>,<function functiondiffC at 0x0000022E89A37EA0>,,,,,2227.7930971000023,2251.1454575999996,None,2249.0121669,None,2246.745448900001,None,27,001,2022_Jul_20_1705,2leo,2021.2.3,59.98497976104575,
3,30,Plan your sport work out for tomorrow,Stimuli/30A1.jpg,Stimuli/30A2.jpg,Stimuli/30A3.jpg,Stimuli/30B1.jpg,Stimuli/30B2.jpg,Stimuli/30B3.jpg,Stimuli/30C1.jpg,Stimuli/30C2.jpg,Stimuli/30C3.jpg,,,,,0,35,35,30,,,,,,,,2254.130205100002,None,2255.1451737999996,None,2261.1452229999995,None,"[-0.203, -0.347]","[-0.2, 0.346]","[0.399, -0.003]","[0.304, -0.26]","[-0.378, -0.136]","[0.07, 0.393]","[0.066, -0.395]","[-0.377, 0.138]","[0.306, 0.255]",,13.406363879999844,7.407062079997559,5.157367780000641,"[-0.3814814814814815, 0.3824074074074074, -0.21296296296296297]","[0.1175925925925926, -0.3, -0.30462962962962964]","[1, 1, 1]","[0, 0, 0]","[0, 0, 0]","[5.1456522999978915, 7.395668399996794, 13.395258799999283]",0.01069597999958205,13.405805279999186,['A1'],['B1'],['C2'],['yellow'],['salmon'],['blue'],2276.2112560999994,None,3.0,1.5803645000014512,2276.2112560999994,None,2281.2445559000007,None,0.0,2.699045899997145,2277.9113196,None,3.0,3.364831300001242,2283.9612159000026,None,7.0,3.8650619000000006,<function functionImportanceB at 0x0000022E89F517B8>,<function functionImportanceC at 0x0000022E89F51F28>,<function functionImportanceA at 0x0000022E89F51D90>,,,7.0,2.76428450000094,9.0,3.8650619000000006,9.0,2.1312250000009954,<function functiondiffC at 0x0000022E89F51598>,<function functiondiffA at 0x0000022E89A37598>,<function functiondiffB at 0x0000022E89A371E0>,,,,,2262.3303283999994,2287.8111651,None,2292.4444218999997,None,2290.2944435000027,None,27,001,2022_Jul_20_1705,2leo,2021.2.3,59.98497976104575,
3,32,Plan how you want to relax after a workday,Stimuli/32A1.jpg,Stimuli/32A2.jpg,Stimuli/32A3.jpg,Stimuli/32B1.jpg,Stimuli/32B2.jpg,Stimuli/32B3.jpg,Stimuli/32C1.jpg,Stimuli/32C2.jpg,Stimuli/32C3.jpg,,,,,0,36,36,32,,,,,,,,2294.7297172,None,2295.7442714999997,None,2301.7442126000024,None,"[-0.377, 0.138]","[0.306, 0.255]","[0.066, -0.395]","[-0.378, -0.136]","[0.07, 0.393]","[0.304, -0.26]","[-0.2, 0.346]","[0.399, -0.003]","[-0.203, -0.347]",,2.6559259399909934,5.172797539991734,8.106395139991946,"[-0.3277777777777778, 0.03888888888888889, 0.44814814814814813]","[0.1675925925925926, 0.412962962962963, 0.05740740740740741]","[1, 1, 1]","[0, 0, 0]","[0, 0, 0]","[2.654392000000371, 5.170944800000143, 8.104287500002101]",0.0011018399927706923,8.105081339992466,['A1'],['B2'],['C2'],['yellow'],['blue'],['salmon'],2313.3266834999995,None,10.0,1.946978100000706,2313.3266834999995,None,2319.2603694000027,None,9.0,4.514806900002441,2316.1269083000007,None,-0.0,3.8975008000015805,2324.8601031,None,8.0,6.71491160000005,<function functionImportanceB at 0x0000022E89F51E18>,<function functionImportanceC at 0x0000022E83D4EE18>,<function functionImportanceA at 0x0000022E89F51EA0>,,,9.0,2.6976627000003646,3.0,6.71491160000005,-0.0,2.0977931000015815,<function functiondiffB at 0x0000022E89F51AE8>,<function functiondiffA at 0x0000022E89A37AE8>,<function functiondiffC at 0x0000022E89F51268>,,,,,2304.755022600002,2335.3265073000002,None,2330.6765083000028,None,2333.5432605999995,None,27,001,2022_Jul_20_1705,2leo,2021.2.3,59.98497976104575,
3,27,Plan what festival to visit with your friends,Stimuli/27A1.jpg,Stimuli/27A2.jpg,Stimuli/27A3.jpg,Stimuli/27B1.jpg,Stimuli/27B2.jpg,Stimuli/27B3.jpg,Stimuli/27C1.jpg,Stimuli/27C2.jpg,Stimuli/27C3.jpg,,,,,0,37,37,27,,,,,,,,2337.2949922000007,None,2338.3096016000018,None,2344.3097331999998,None,"[0.066, -0.395]","[-0.377, 0.138]","[0.306, 0.255]","[0.304, -0.26]","[-0.378, -0.136]","[0.07, 0.393]","[-0.203, -0.347]","[-0.2, 0.346]","[0.399, -0.003]",,3.4287690600031056,8.578936960002466,14.079031660003238,"[0.05740740740740741, -0.375, -0.15555555555555556]","[-0.3824074074074074, -0.0712962962962963, 0.3490740740740741]","[1, 1, 1]","[0, 0, 0]","[0, 0, 0]","[3.423265600002196, 8.57306150000295, 14.072887800000899]",0.005075760000181617,14.077882060002594,['A1'],['B2'],['C2'],['blue'],['salmon'],['yellow'],2360.0090824,None,8.0,2.8472981999984768,2360.0090824,None,2368.575951400002,None,0.0,7.415309599997272,2362.9424800000015,None,2.0,3.1146007999996073,2366.0757292000017,None,9.0,2.4984030999985407,<function functionImportanceB at 0x0000022E8A201598>,<function functionImportanceA at 0x0000022E89F510D0>,<function functionImportanceC at 0x0000022E8A2011E0>,,,10.0,2.6146407999985968,9.0,2.4984030999985407,0.0,2.830992499999411,<function functiondiffA at 0x0000022E89F51510>,<function functiondiffC at 0x0000022E8A201840>,<function functiondiffB at 0x0000022E89F51BF8>,,,,,2345.4514519000004,2378.8252493,None,2380.6419834000008,None,2375.9754716000025,None,27,001,2022_Jul_20_1705,2leo,2021.2.3,59.98497976104575,
3,0,Plan a barbecue,Stimuli/0A1.jpg,Stimuli/0A2.jpg,Stimuli/0A3.jpg,Stimuli/0B1.jpg,Stimuli/0B2.jpg,Stimuli/0B3.jpg,Stimuli/0C1.jpg,Stimuli/0C2.jpg,Stimuli/0C3.jpg,,,,,0,38,38,0,,,,,,,,2382.777592000002,None,2383.7916939000024,None,2389.7918308000008,None,"[-0.203, -0.347]","[0.399, -0.003]","[-0.2, 0.346]","[0.066, -0.395]","[0.306, 0.255]","[-0.377, 0.138]","[0.304, -0.26]","[0.07, 0.393]","[-0.378, -0.136]",,6.364444060000096,2.514759760000743,8.64825995999854,"[0.021296296296296296, 0.4398148148148148, -0.412962962962963]","[-0.31851851851851853, 0.002777777777777778, -0.09537037037037037]","[1, 1, 1]","[0, 0, 0]","[0, 0, 0]","[2.4977431999977853, 6.347580899997411, 8.630825899999763]",0.01631405999796698,8.6470720599973,['A2'],['B1'],['C3'],['salmon'],['yellow'],['blue'],2401.3580115000004,None,9.0,1.897521200000483,2401.3580115000004,None,2406.4581003999992,None,10.0,2.6486325999976543,2403.3079634000023,None,2.0,3.1305820000015956,2410.4612466,None,6.0,3.214825099999871,<function functionImportanceB at 0x0000022E8A201158>,<function functionImportanceC at 0x0000022E8A201620>,<function functionImportanceA at 0x0000022E89A37B70>,,,2.0,2.714483999996446,1.0,3.214825099999871,0.0,2.7310438999993494,<function functiondiffB at 0x0000022E89F51C80>,<function functiondiffC at 0x0000022E8A201B70>,<function functiondiffA at 0x0000022E89F51620>,,,,,2392.2607245,2415.074424800001,None,2412.324580700002,None,2418.0744827000017,None,27,001,2022_Jul_20_1705,2leo,2021.2.3,59.98497976104575,
3,3,Plan a movie night with a friend,Stimuli/3A1.jpg,Stimuli/3A2.jpg,Stimuli/3A3.jpg,Stimuli/3B1.jpg,Stimuli/3B2.jpg,Stimuli/3B3.jpg,Stimuli/3C1.jpg,Stimuli/3C2.jpg,Stimuli/3C3.jpg,,,,,0,39,39,3,,,,,,,,2419.9431312000015,None,2420.957431900002,None,2426.9575559000004,None,"[-0.377, 0.138]","[0.306, 0.255]","[0.066, -0.395]","[-0.378, -0.136]","[0.07, 0.393]","[0.304, -0.26]","[-0.2, 0.346]","[0.399, -0.003]","[-0.203, -0.347]",,3.3550610799939022,10.105317379991902,8.172008079993248,"[0.044444444444444446, -0.1638888888888889, 0.3287037037037037]","[-0.3398148148148148, 0.325, -0.25462962962962965]","[1, 1, 1]","[0, 0, 0]","[0, 0, 0]","[3.340200899998308, 8.156803599998966, 10.090208400000847]",0.014243379991967231,10.104237679992366,['A3'],['B3'],['C1'],['blue'],['salmon'],['yellow'],2441.1068956000017,None,7.0,2.1637569999984407,2441.1068956000017,None,2448.440331400001,None,-0.0,4.714879999999539,2452.1567066999996,None,10.0,3.6316329000001133,2443.3735940000006,None,4.0,3.381288799999311,<function functionImportanceA at 0x0000022E89A370D0>,<function functionImportanceC at 0x0000022E8A201D90>,<function functionImportanceB at 0x0000022E8A2010D0>,,,0.0,2.5481199999994715,8.0,3.381288799999311,3.0,2.2649640000017826,<function functiondiffC at 0x0000022E8A2017B8>,<function functiondiffA at 0x0000022E8A201950>,<function functiondiffB at 0x0000022E8A201BF8>,,,,,2430.549485800002,2455.423514600003,None,2461.4565709000017,None,2458.8232333000014,None,27,001,2022_Jul_20_1705,2leo,2021.2.3,59.98497976104575,
3,15,Plan your own Pasta for lunch,Stimuli/15A1.jpg,Stimuli/15A2.jpg,Stimuli/15A3.jpg,Stimuli/15B1.jpg,Stimuli/15B2.jpg,Stimuli/15B3.jpg,Stimuli/15C1.jpg,Stimuli/15C2.jpg,Stimuli/15C3.jpg,,,,,0,40,40,15,,,,,,,,2463.1757891000016,None,2464.1896363000014,None,2470.1897916000016,None,"[-0.378, -0.136]","[0.304, -0.26]","[0.07, 0.393]","[-0.377, 0.138]","[0.066, -0.395]","[0.306, 0.255]","[-0.2, 0.346]","[-0.203, -0.347]","[0.399, -0.003]",,9.207379679995938,4.257899979998911,12.574576779996278,"[0.046296296296296294, -0.39444444444444443, 0.42685185185185187]","[-0.325, -0.1388888888888889, -0.028703703703703703]","[1, 1, 1]","[0, 0, 0]","[0, 0, 0]","[4.2499533999980486, 9.199800700000196, 12.566314799998509]",0.007177379997301614,12.573281179997139,['A1'],['B2'],['C3'],['yellow'],['blue'],['salmon'],2485.1724969000024,None,6.0,2.346961700000975,2485.1724969000024,None,2492.9557636000027,None,7.0,6.698413999998593,2490.022495100002,None,7.0,2.165116600001056,2487.6558821,None,0.0,2.3977721000010206,<function functionImportanceA at 0x0000022E89F51378>,<function functionImportanceB at 0x0000022E8A201048>,<function functionImportanceC at 0x0000022E8A2018C8>,,,1.0,1.947793700001057,3.0,2.3977721000010206,8.0,3.214407299998129,<function functiondiffA at 0x0000022E8A201488>,<function functiondiffB at 0x0000022E89F518C8>,<function functiondiffC at 0x0000022E89F51158>,,,,,2472.1370978000014,2504.1887935000013,None,2502.1054963999995,None,2498.872281600001,None,27,001,2022_Jul_20_1705,2leo,2021.2.3,59.98497976104575,
3,38,Plan how you want to go for a run,Stimuli/38A1.jpg,Stimuli/38A2.jpg,Stimuli/38A3.jpg,Stimuli/38B1.jpg,Stimuli/38B2.jpg,Stimuli/38B3.jpg,Stimuli/38C1.jpg,Stimuli/38C2.jpg,Stimuli/38C3.jpg,,,,,0,41,41,38,,,,,,,,2506.0243212999994,None,2507.0384833000026,None,2513.0386763999995,None,"[0.07, 0.393]","[0.304, -0.26]","[-0.378, -0.136]","[0.306, 0.255]","[0.066, -0.395]","[-0.377, 0.138]","[0.399, -0.003]","[-0.203, -0.347]","[-0.2, 0.346]",,7.560812299998361,2.960902200000419,14.427561199998308,"[-0.3111111111111111, -0.32222222222222224, -0.14907407407407408]","[0.12314814814814815, -0.12685185185185185, -0.30462962962962964]","[1, 1, 1]","[0, 0, 0]","[0, 0, 0]","[2.947639400001208, 7.5478745000000345, 14.414059200000338]",0.01234919999842532,14.426161300001695,['A3'],['B3'],['C2'],['blue'],['salmon'],['yellow'],2529.1711233000024,None,3.0,1.8623654000002716,2529.1711233000024,None,2534.4547574999997,None,5.0,2.4652510000014445,2536.8547148,None,10.0,2.081670200001099,2531.1048919000023,None,8.0,3.248235900002328,<function functionImportanceA at 0x0000022E8A2016A8>,<function functionImportanceC at 0x0000022E8A50A378>,<function functionImportanceB at 0x0000022E8A2019D8>,,,0.0,1.79725800000233,5.0,3.248235900002328,4.0,2.5973722000017005,<function functiondiffB at 0x0000022E8A201268>,<function functiondiffA at 0x0000022E8A201730>,<function functiondiffC at 0x0000022E8A201E18>,,,,,2514.2733499000024,2543.3712583000015,None,2538.921115500001,None,2540.7212660000005,None,27,001,2022_Jul_20_1705,2leo,2021.2.3,59.98497976104575,
3,41,Plan how you want to have dinner tonight ,Stimuli/41A1.jpg,Stimuli/41A2.jpg,Stimuli/41A3.jpg,Stimuli/41B1.jpg,Stimuli/41B2.jpg,Stimuli/41B3.jpg,Stimuli/41C1.jpg,Stimuli/41C2.jpg,Stimuli/41C3.jpg,,,,,0,42,42,41,,,,,,,,2544.9931438999993,None,2546.004167700001,None,2552.0042273,None,"[0.399, -0.003]","[-0.2, 0.346]","[-0.203, -0.347]","[0.07, 0.393]","[-0.378, -0.136]","[0.304, -0.26]","[0.306, 0.255]","[-0.377, 0.138]","[0.066, -0.395]",,6.2242218799983675,8.457726179996826,4.6751091799960705,"[0.030555555555555555, -0.1787037037037037, 0.325]","[-0.39537037037037037, -0.3055555555555556, -0.22592592592592592]","[1, 1, 1]","[0, 0, 0]","[0, 0, 0]","[4.663828199998534, 6.213347900000372, 8.446727599999576]",0.010169879999011755,8.456727379998483,['A3'],['B3'],['C3'],['salmon'],['yellow'],['blue'],2562.287189800001,None,3.0,2.0472178000018175,2562.287189800001,None,2564.570306400001,None,5.0,5.197964499999216,2569.6203576000007,None,3.0,4.315234099998634,2573.9703271,None,10.0,2.8153224999987287,<function functionImportanceC at 0x0000022E8A50A0D0>,<function functionImportanceB at 0x0000022E8A50A6A8>,<function functionImportanceA at 0x0000022E8A50A7B8>,,,4.0,3.3146928999995,10.0,2.8153224999987287,1.0,2.0311814000015147,<function functiondiffB at 0x0000022E8A2012F0>,<function functiondiffA at 0x0000022E8A201D08>,<function functiondiffC at 0x0000022E8A201F28>,,,,,2553.3561859,2582.1701613000005,None,2576.753592500001,None,2580.0868575999993,None,27,001,2022_Jul_20_1705,2leo,2021.2.3,59.98497976104575,
3,29,Plan a day in the mountains ,Stimuli/29A1.jpg,Stimuli/29A2.jpg,Stimuli/29A3.jpg,Stimuli/29B1.jpg,Stimuli/29B2.jpg,Stimuli/29B3.jpg,Stimuli/29C1.jpg,Stimuli/29C2.jpg,Stimuli/29C3.jpg,,,,,0,43,43,29,,,,,,,,2584.5065670000004,None,2585.5198941000017,None,2591.5199625999994,None,"[0.306, 0.255]","[-0.377, 0.138]","[0.066, -0.395]","[0.07, 0.393]","[-0.378, -0.136]","[0.304, -0.26]","[0.399, -0.003]","[-0.2, 0.346]","[-0.203, -0.347]",,3.8040389199995843,14.087207219999982,8.954113320000033,"[0.006481481481481481, 0.43425925925925923, 0.046296296296296294]","[-0.34444444444444444, 0.03796296296296296, 0.3712962962962963]","[1, 1, 1]","[0, 0, 0]","[0, 0, 0]","[3.7942753000024823, 8.944004799999675, 14.077362399999402]",0.009029720000398811,14.086273019998771,['A3'],['B1'],['C1'],['blue'],['salmon'],['yellow'],2607.2859411000027,None,2.0,2.313157599997794,2607.2859411000027,None,2609.6694494000003,None,10.0,2.3478963000015938,2615.602652400001,None,0.0,2.915239999998448,2612.086034,None,1.0,3.56511540000065,<function functionImportanceC at 0x0000022E8A50AF28>,<function functionImportanceA at 0x0000022E8A50A840>,<function functionImportanceB at 0x0000022E8A50A8C8>,,,7.0,2.630883099998755,0.0,3.56511540000065,7.0,2.431015500002104,<function functiondiffB at 0x0000022E8A50A2F0>,<function functiondiffA at 0x0000022E8A50A510>,<function functiondiffC at 0x0000022E8A50A1E0>,,,,,2592.7234745999995,2623.6024539000027,None,2618.5191551999997,None,2621.1856412000016,None,27,001,2022_Jul_20_1705,2leo,2021.2.3,59.98497976104575,
3,19,Plan how you want your garden to look like,Stimuli/19A1.jpg,Stimuli/19A2.jpg,Stimuli/19A3.jpg,Stimuli/19B1.jpg,Stimuli/19B2.jpg,Stimuli/19B3.jpg,Stimuli/19C1.jpg,Stimuli/19C2.jpg,Stimuli/19C3.jpg,,,,,0,44,44,19,,,,,,,,2625.622334300002,None,2626.6355264000013,None,2632.6354931999995,None,"[-0.203, -0.347]","[-0.2, 0.346]","[0.399, -0.003]","[0.304, -0.26]","[-0.378, -0.136]","[0.07, 0.393]","[0.066, -0.395]","[-0.377, 0.138]","[0.306, 0.255]",,4.651614019992849,8.485206019991892,2.451994819992251,"[-0.35555555555555557, -0.1425925925925926, 0.07314814814814814]","[0.15925925925925927, 0.30462962962962964, 0.3648148148148148]","[1, 1, 1]","[0, 0, 0]","[0, 0, 0]","[2.438616199997341, 4.638735099997575, 8.471980700000131]",0.012377019993436988,8.484138419993542,['A2'],['B3'],['C2'],['yellow'],['salmon'],['blue'],2645.1848398,None,3.0,1.6803072999973665,2645.1848398,None,2648.2850399000017,None,2.0,5.397682300001179,2656.0038411999994,None,2.0,2.931993900001544,2652.368422800002,None,2.0,2.5320314999989932,<function functionImportanceC at 0x0000022E8A50AEA0>,<function functionImportanceA at 0x0000022E8A50AA60>,<function functionImportanceB at 0x0000022E8A50A950>,,,8.0,2.747614700001577,3.0,2.5320314999989932,4.0,3.781002100000478,<function functiondiffB at 0x0000022E8A50AC80>,<function functiondiffC at 0x0000022E8A50A048>,<function functiondiffA at 0x0000022E8A201AE8>,,,,,2636.246367400003,2660.968091900002,None,2658.0513942,None,2663.7846959000017,None,27,001,2022_Jul_20_1705,2leo,2021.2.3,59.98497976104575,
