Condition,N_Scenario,written_scenario,ImageA1,ImageA2,ImageA3,ImageB1,ImageB2,ImageB3,ImageC1,ImageC2,ImageC3,trials_2.thisRepN,trials_2.thisTrialN,trials_2.thisN,trials_2.thisIndex,trial.thisRepN,trial.thisTrialN,trial.thisN,trial.thisIndex,button_2.started,button_2.stopped,button_2.numClicks,button_2.timesOn,button_2.timesOff,text.started,text.stopped,fixationcross1_started,fixationcross1_stopped,Scenario_started,Scenario_stopped,fixationcross2_started,fixationcross2_stopped,A1pos,A2pos,A3pos,B1pos,B2pos,B3pos,C1pos,C2pos,C3pos,﻿Imagesdecision_started,decisiontimeA,decisiontimeB,decisiontimeC,mouse_x,mouse_y,mouse_leftButton,mouse_midButton,mouse_rightButton,mouse_time,mouse_started,mouse_stopped,clicked_optionA,clicked_optionB,clicked_optionC,colour_category_A,colour_category_B,colour_category_C,question_confidence_started,question_confidence_stopped,slider_confidence_response,slider_confidence_rt,slider_confidence_started,slider_confidence_stopped,question_valueA_started,question_valueA_stopped,slider_valueA_response,slider_valueA_rt,question_valueC_started,question_valueC_stopped,slider_valueC_response,slider_valueC_rt,question_valueB_started,question_valueB_stopped,slider_valueB_response,slider_valueB_rt,Importance_First,Importance_Second,Importance_Third,question_diff_started,question_diff_stopped,slider_diffB_response,slider_diffB_rt,slider_diffC_response,slider_diffC_rt,slider_diffA_response,slider_diffA_rt,diff_First,diff_Second,diff_Third,button_3_started,button_3_stopped,text_2_started,text_2_stopped,Imagesdecision_started,question_diffC_started,question_diffC_stopped,question_diffA_started,question_diffA_stopped,question_diffB_started,question_diffB_stopped,participant,session,date,expName,psychopyVersion,frameRate,
3,2,Plan a party to celebrate your birthday,Stimuli/2A1t.jpg,Stimuli/2A2t.jpg,Stimuli/2A3t.jpg,Stimuli/2B1t.jpg,Stimuli/2B2t.jpg,Stimuli/2B3t.jpg,Stimuli/2C1t.jpg,Stimuli/2C2t.jpg,Stimuli/2C3t.jpg,0,0,0,0,,,,,29.475708699999814,None,1,[10.813483399999768],[10.813487200000054],29.475708699999814,None,92.80405729999984,None,93.81085649999977,None,99.8107141999999,None,"[0.399, -0.003]","[-0.2, 0.346]","[-0.203, -0.347]","[0.306, 0.255]","[-0.377, 0.138]","[0.066, -0.395]","[0.07, 0.393]","[-0.378, -0.136]","[0.304, -0.26]",103.83738080000012,31.703756129998965,2.88822552999909,33.42074742999921,"[0.3398148148148148, 0.12314814814814815, 0.4046296296296296, -0.35462962962962963]","[0.2814814814814815, -0.3277777777777778, -0.024074074074074074, -0.13240740740740742]","[1, 1, 1, 1]","[0, 0, 0, 0]","[0, 0, 0, 0]","[2.8863643999998203, 5.319631599999866, 31.70222879999983, 33.418617399999675]",0.0011283299991191598,33.41970452999931,['A1'],['B1'],['C2'],['yellow'],['salmon'],['blue'],137.7260379999998,None,10.0,5.7639116999998805,137.7260379999998,None,144.84252789999982,None,10.0,8.364151400000083,151.9589818999998,None,7.0,6.381620600000133,159.87574059999997,None,2.0,4.998530800000026,<function functionImportanceAt at 0x0000028B77B94D08>,<function functionImportanceCt at 0x0000028B069BAF28>,<function functionImportanceBt at 0x0000028B069BAE18>,175.72520649999979,None,0.0,6.513824300000124,-0.0,5.397695900000144,4.0,8.364151400000083,<function functiondiffBt at 0x0000028B09204B70>,<function functiondiffCt at 0x0000028B09204D08>,<function functiondiffAt at 0x0000028B09204840>,,,,,,,,,,,,1,001,2022_Jun_13_0901,2leo,2021.2.3,60.001428034001336,
3,3,Plan one week of vacation,Stimuli/3A1t.jpg,Stimuli/3A2t.jpg,Stimuli/3A3t.jpg,Stimuli/3B1t.jpg,Stimuli/3B2t.jpg,Stimuli/3B3t.jpg,Stimuli/3C1t.jpg,Stimuli/3C2t.jpg,Stimuli/3C3t.jpg,0,1,1,1,,,,,,,,,,,,180.2252226999999,None,181.22500309999987,None,187.225054,None,"[0.306, 0.255]","[0.066, -0.395]","[-0.377, 0.138]","[0.07, 0.393]","[0.304, -0.26]","[-0.378, -0.136]","[0.399, -0.003]","[-0.203, -0.347]","[-0.2, 0.346]",193.35251419999986,5.233095879999382,9.133387379999022,12.583810279998943,"[-0.3333333333333333, 0.3055555555555556, 0.4185185185185185]","[0.1175925925925926, -0.2953703703703704, -0.007407407407407408]","[1, 1, 1]","[0, 0, 0]","[0, 0, 0]","[5.222690900000089, 9.122801999999865, 12.573072000000138]",0.009816879999107186,12.5824604799991,['A3'],['B2'],['C1'],['blue'],['salmon'],['yellow'],206.39094579999983,None,5.0,2.7809872999996514,206.39094579999983,None,223.2574808999998,None,7.0,8.265320399999837,217.57437590000018,None,2.0,5.2148849000000155,210.94185470000002,None,10.0,6.881294299999809,<function functionImportanceBt at 0x0000028B069BAAE8>,<function functionImportanceCt at 0x0000028B753320D0>,<function functionImportanceAt at 0x0000028B069BA950>,239.6401089000001,None,5.0,5.864926000000196,2.0,5.814376299999822,8.0,8.265320399999837,<function functiondiffCt at 0x0000028B092040D0>,<function functiondiffAt at 0x0000028B09204268>,<function functiondiffBt at 0x0000028B09204048>,,,,,,,,,,,,1,001,2022_Jun_13_0901,2leo,2021.2.3,60.001428034001336,
3,38,Plan how you want to go for a run,Stimuli/38A1.jpg,Stimuli/38A2.jpg,Stimuli/38A3.jpg,Stimuli/38B1.jpg,Stimuli/38B2.jpg,Stimuli/38B3.jpg,Stimuli/38C1.jpg,Stimuli/38C2.jpg,Stimuli/38C3.jpg,,,,,0,0,0,38,,,,,,,,287.67075609999983,None,288.65565449999986,None,294.6555718999998,None,"[0.066, -0.395]","[-0.377, 0.138]","[0.306, 0.255]","[-0.203, -0.347]","[-0.2, 0.346]","[0.399, -0.003]","[0.304, -0.26]","[-0.378, -0.136]","[0.07, 0.393]",,9.407751480000115,13.891098279999824,3.341508680000061,"[-0.33425925925925926, -0.34629629629629627, -0.1527777777777778]","[-0.09166666666666666, 0.14351851851851852, -0.3851851851851852]","[1, 1, 1]","[0, 0, 0]","[0, 0, 0]","[3.335501099999874, 9.40223990000004, 13.885423199999877]",0.005015279999952327,13.890275180000117,['A2'],['B1'],['C2'],['yellow'],['salmon'],['blue'],310.2546719000002,None,8.0,4.129205999999613,310.2546719000002,None,314.5109149,None,10.0,2.5977733999998236,322.7549174999999,None,10.0,4.214897999999721,317.1058422000001,None,6.0,5.548222800000076,<function functionImportanceA at 0x0000028B069BA8C8>,<function functionImportanceB at 0x0000028B08587840>,<function functionImportanceC at 0x0000028B085878C8>,,,2.0,5.831010399999741,3.0,2.5977733999998236,0.0,3.1311674000003222,<function functiondiffC at 0x0000028B09204950>,<function functiondiffA at 0x0000028B09204730>,<function functiondiffB at 0x0000028B09204AE8>,244.62337230000003,None,244.62337230000003,None,295.8860082000001,326.85451539999985,None,334.33788030000005,None,337.4877044,None,1,001,2022_Jun_13_0901,2leo,2021.2.3,60.001428034001336,
3,18,Plan your Saturday night ,Stimuli/18A1.jpg,Stimuli/18A2.jpg,Stimuli/18A3.jpg,Stimuli/18B1.jpg,Stimuli/18B2.jpg,Stimuli/18B3.jpg,Stimuli/18C1.jpg,Stimuli/18C2.jpg,Stimuli/18C3.jpg,,,,,0,1,1,18,,,,,,,,342.83754929999986,None,343.8390512000001,None,349.85413789999984,None,"[0.399, -0.003]","[-0.203, -0.347]","[-0.2, 0.346]","[0.07, 0.393]","[0.304, -0.26]","[-0.378, -0.136]","[0.306, 0.255]","[0.066, -0.395]","[-0.377, 0.138]",,2.476755619999949,7.71028841999987,5.2269990199997665,"[-0.23796296296296296, 0.35555555555555557, 0.07407407407407407]","[-0.37777777777777777, 0.30462962962962964, 0.4527777777777778]","[1, 1, 1]","[0, 0, 0]","[0, 0, 0]","[2.4707587000002604, 5.220624800000223, 7.704149099999995]",0.005452219999824592,7.709329320000052,['A2'],['B1'],['C1'],['salmon'],['yellow'],['blue'],359.1369493000002,None,10.0,1.9637970999997378,359.1369493000002,None,361.1704998,None,10.0,2.880978299999697,368.1037035999998,None,2.0,4.598602200000187,364.03707889999987,None,10.0,4.015314900000249,<function functionImportanceA at 0x0000028B085876A8>,<function functionImportanceB at 0x0000028B08587EA0>,<function functionImportanceC at 0x0000028B08587950>,,,0.0,3.081276500000058,0.0,2.880978299999697,0.0,3.8978010000000722,<function functiondiffC at 0x0000028B085872F0>,<function functiondiffA at 0x0000028B08587D90>,<function functiondiffB at 0x0000028B085879D8>,,,,,350.94783019999977,372.68696850000015,None,376.97002759999987,None,380.8698737999998,None,1,001,2022_Jun_13_0901,2leo,2021.2.3,60.001428034001336,
3,31,Plan your order at a restaurant    ,Stimuli/31A1.jpg,Stimuli/31A2.jpg,Stimuli/31A3.jpg,Stimuli/31B1.jpg,Stimuli/31B2.jpg,Stimuli/31B3.jpg,Stimuli/31C1.jpg,Stimuli/31C2.jpg,Stimuli/31C3.jpg,,,,,0,2,2,31,,,,,,,,383.48645339999985,None,384.4863206,None,390.4863897,None,"[-0.377, 0.138]","[0.306, 0.255]","[0.066, -0.395]","[-0.2, 0.346]","[0.399, -0.003]","[-0.203, -0.347]","[-0.378, -0.136]","[0.07, 0.393]","[0.304, -0.26]",,8.88345468000034,5.350310280000031,14.367092180000327,"[0.4101851851851852, 0.03518518518518519, 0.05740740740740741]","[0.008333333333333333, -0.4083333333333333, 0.45555555555555555]","[1, 1, 1]","[0, 0, 0]","[0, 0, 0]","[5.3412319999997635, 8.874523899999986, 14.357789499999853]",0.008273280000139493,14.365867580000213,['A3'],['B2'],['C2'],['salmon'],['yellow'],['blue'],407.90241920000017,None,5.0,3.0809745999999905,407.90241920000017,None,423.9354073999998,None,5.0,9.981735699999717,411.0857851999999,None,3.0,7.446515999999974,418.5187762999999,None,7.0,3.998371799999859,<function functionImportanceC at 0x0000028B7B135158>,<function functionImportanceB at 0x0000028B08587F28>,<function functionImportanceA at 0x0000028B08587D08>,,,8.0,5.614489000000049,6.0,9.981735699999717,7.0,5.597968600000058,<function functiondiffA at 0x0000028B07A938C8>,<function functiondiffC at 0x0000028B061C2E18>,<function functiondiffB at 0x0000028B08587488>,,,,,393.0780285000001,438.1184016000002,None,432.85314419999986,None,442.6016159999999,None,1,001,2022_Jun_13_0901,2leo,2021.2.3,60.001428034001336,
3,36,Plan your shopping for new clothing,Stimuli/36A1.jpg,Stimuli/36A2.jpg,Stimuli/36A3.jpg,Stimuli/36B1.jpg,Stimuli/36B2.jpg,Stimuli/36B3.jpg,Stimuli/36C1.jpg,Stimuli/36C2.jpg,Stimuli/36C3.jpg,,,,,0,3,3,36,,,,,,,,447.7348265999999,None,448.7363111999998,None,454.75145440000006,None,"[-0.378, -0.136]","[0.304, -0.26]","[0.07, 0.393]","[-0.2, 0.346]","[-0.203, -0.347]","[0.399, -0.003]","[-0.377, 0.138]","[0.066, -0.395]","[0.306, 0.255]",,14.711114660000021,21.34431395999991,8.744842959999914,"[0.09537037037037037, 0.27870370370370373, -0.24074074074074073]","[-0.41944444444444445, -0.2101851851851852, -0.30277777777777776]","[1, 1, 1]","[0, 0, 0]","[0, 0, 0]","[8.729266400000142, 14.695932900000116, 21.328995400000167]",0.014576759999727074,21.343325959999675,['A2'],['B2'],['C2'],['yellow'],['blue'],['salmon'],477.68376420000004,None,3.0,3.0970869000002494,477.68376420000004,None,486.1837845,None,5.0,6.165119100000084,492.33365860000004,None,8.0,6.915098200000102,480.8336334999999,None,9.0,5.2810254999999415,<function functionImportanceB at 0x0000028B08587510>,<function functionImportanceA at 0x0000028B09204510>,<function functionImportanceC at 0x0000028B08587378>,,,9.0,3.3479498000001513,5.0,6.165119100000084,7.0,6.481096900000011,<function functiondiffA at 0x0000028B08587598>,<function functiondiffB at 0x0000028B08587A60>,<function functiondiffC at 0x0000028B07DB0730>,,,,,455.86963620000006,509.0831078000001,None,499.2335772000001,None,505.73322210000015,None,1,001,2022_Jun_13_0901,2leo,2021.2.3,60.001428034001336,
3,39,Plan what kind of watch you want to buy,Stimuli/39A1.jpg,Stimuli/39A2.jpg,Stimuli/39A3.jpg,Stimuli/39B1.jpg,Stimuli/39B2.jpg,Stimuli/39B3.jpg,Stimuli/39C1.jpg,Stimuli/39C2.jpg,Stimuli/39C3.jpg,,,,,0,4,4,39,,,,,,,,512.8161863999999,None,513.8163656000002,None,519.8164327999998,None,"[0.304, -0.26]","[-0.378, -0.136]","[0.07, 0.393]","[0.066, -0.395]","[-0.377, 0.138]","[0.306, 0.255]","[-0.203, -0.347]","[-0.2, 0.346]","[0.399, -0.003]",,16.58527452999988,11.885655130000032,6.402599630000168,"[-0.14444444444444443, -0.3861111111111111, 0.32314814814814813]","[-0.3194444444444444, 0.17314814814814813, -0.21666666666666667]","[1, 1, 1]","[0, 0, 0]","[0, 0, 0]","[6.391529199999695, 11.874709999999595, 16.574781799999982]",0.010084529999858205,16.58454402999996,['A1'],['B2'],['C1'],['yellow'],['salmon'],['blue'],538.0155644000001,None,4.0,2.513263900000311,538.0155644000001,None,540.5990642000002,None,8.0,6.581009699999868,550.5987475000002,None,4.0,8.614669799999774,547.1822748999998,None,6.0,3.331897100000333,<function functionImportanceA at 0x0000028B08587B70>,<function functionImportanceB at 0x0000028B07DB0620>,<function functionImportanceC at 0x0000028B07DB0598>,,,7.0,4.63097259999995,8.0,6.581009699999868,2.0,6.314600700000028,<function functiondiffB at 0x0000028B09204EA0>,<function functiondiffA at 0x0000028B08587048>,<function functiondiffC at 0x0000028B092048C8>,,,,,520.9570266000001,570.1315579000002,None,563.7982222999999,None,559.1485794999999,None,1,001,2022_Jun_13_0901,2leo,2021.2.3,60.001428034001336,
3,4,Plan a game night at your place,Stimuli/4A1.jpg,Stimuli/4A2.jpg,Stimuli/4A3.jpg,Stimuli/4B1.jpg,Stimuli/4B2.jpg,Stimuli/4B3.jpg,Stimuli/4C1.jpg,Stimuli/4C2.jpg,Stimuli/4C3.jpg,,,,,0,5,5,4,,,,,,,,575.7645305000001,None,576.7645849,None,582.7646220000001,None,"[-0.203, -0.347]","[0.399, -0.003]","[-0.2, 0.346]","[0.066, -0.395]","[0.306, 0.255]","[-0.377, 0.138]","[0.304, -0.26]","[0.07, 0.393]","[-0.378, -0.136]",,4.5205928099999255,7.820561509999607,12.154151909999655,"[-0.17592592592592593, -0.3296296296296296, -0.32037037037037036]","[0.32222222222222224, 0.1388888888888889, -0.0962962962962963]","[1, 1, 1]","[0, 0, 0]","[0, 0, 0]","[4.505626900000152, 7.805389399999967, 12.138736700000209]",0.01434300999972038,12.152860009999586,['A3'],['B3'],['C3'],['salmon'],['yellow'],['blue'],598.7805926999999,None,8.0,3.013818099999753,598.7805926999999,None,615.3971926999998,None,3.0,5.181509099999857,603.1841507999998,None,9.0,6.597796200000175,608.4472034,None,10.0,5.9149899999997615,<function functionImportanceC at 0x0000028B07DB0950>,<function functionImportanceB at 0x0000028B07DB0510>,<function functionImportanceA at 0x0000028B07DB0158>,,,0.0,4.564570500000173,1.0,5.181509099999857,2.0,4.731045999999878,<function functiondiffA at 0x0000028B0697BD90>,<function functiondiffC at 0x0000028B07DB00D0>,<function functiondiffB at 0x0000028B08587C80>,,,,,586.1778727000001,624.7133435999999,None,619.8967938999999,None,630.9799161999999,None,1,001,2022_Jun_13_0901,2leo,2021.2.3,60.001428034001336,
3,12,Plan the ingredients to mix yourself a cocktail,Stimuli/12A1.jpg,Stimuli/12A2.jpg,Stimuli/12A3.jpg,Stimuli/12B1.jpg,Stimuli/12B2.jpg,Stimuli/12B3.jpg,Stimuli/12C1.jpg,Stimuli/12C2.jpg,Stimuli/12C3.jpg,,,,,0,6,6,12,,,,,,,,635.0632209999999,None,636.0648114999999,None,642.0798328000001,None,"[-0.378, -0.136]","[0.304, -0.26]","[0.07, 0.393]","[-0.377, 0.138]","[0.066, -0.395]","[0.306, 0.255]","[-0.2, 0.346]","[-0.203, -0.347]","[0.399, -0.003]",,27.611404329999914,12.363168129999849,7.712723229999938,"[0.39814814814814814, 0.07592592592592592, -0.325, -0.3611111111111111, -0.33240740740740743]","[-0.003703703703703704, -0.3574074074074074, 0.1037037037037037, 0.10462962962962963, -0.16666666666666666]","[1, 1, 1, 1, 1]","[0, 0, 0, 0, 0]","[0, 0, 0, 0, 0]","[7.696516800000154, 12.363039599999865, 18.629239100000177, 22.96415070000012, 27.595884299999852]",0.015116129999569239,27.610859029999574,['A1'],['B2'],['C3'],['blue'],['salmon'],['yellow'],671.2954126,None,2.0,3.9801282999997056,671.2954126,None,675.3955492,None,8.0,8.064097299999958,690.4784386000001,None,10.0,4.731936099999984,683.4118327000001,None,9.0,6.998487000000296,<function functionImportanceA at 0x0000028B07DB0268>,<function functionImportanceB at 0x0000028B07DB01E0>,<function functionImportanceC at 0x0000028B07DB0B70>,,,9.0,5.197620899999947,6.0,8.064097299999958,2.0,4.580915800000184,<function functiondiffB at 0x0000028B07DB02F0>,<function functiondiffA at 0x0000028B09204598>,<function functiondiffC at 0x0000028B07DB0D90>,,,,,643.2151279999998,704.9781124000001,None,700.3783580999998,None,695.1614149000002,None,1,001,2022_Jun_13_0901,2leo,2021.2.3,60.001428034001336,
3,13,Plan a romantic date this weekend,Stimuli/13A1.jpg,Stimuli/13A2.jpg,Stimuli/13A3.jpg,Stimuli/13B1.jpg,Stimuli/13B2.jpg,Stimuli/13B3.jpg,Stimuli/13C1.jpg,Stimuli/13C2.jpg,Stimuli/13C3.jpg,,,,,0,7,7,13,,,,,,,,710.7277131999999,None,711.7276246000001,None,717.7278771000001,None,"[-0.203, -0.347]","[0.399, -0.003]","[-0.2, 0.346]","[0.066, -0.395]","[0.306, 0.255]","[-0.377, 0.138]","[0.304, -0.26]","[0.07, 0.393]","[-0.378, -0.136]",,3.261212440000236,7.510855940000056,16.160874140000033,"[-0.17314814814814813, 0.29074074074074074, 0.28703703703703703]","[0.38333333333333336, 0.23703703703703705, -0.2212962962962963]","[1, 1, 1]","[0, 0, 0]","[0, 0, 0]","[3.25415380000004, 7.503644899999927, 16.153510899999674]",0.0064498400001866685,16.159904239999832,['A3'],['B2'],['C1'],['salmon'],['yellow'],['blue'],735.5602306999999,None,7.0,4.414048999999977,735.5602306999999,None,740.0436706999999,None,6.0,5.348075599999902,748.3435936000001,None,9.0,4.531341700000212,745.4610478,None,8.0,2.9147193000003426,<function functionImportanceA at 0x0000028B07DB0C80>,<function functionImportanceB at 0x0000028B07DB0F28>,<function functionImportanceC at 0x0000028B07DB09D8>,,,4.0,5.447633400000086,8.0,5.348075599999902,1.0,3.914587400000073,<function functiondiffB at 0x0000028B08587730>,<function functiondiffA at 0x0000028B07DB0EA0>,<function functiondiffC at 0x0000028B08587400>,,,,,718.922106,762.2601494999999,None,758.3266291999998,None,752.8767843999999,None,1,001,2022_Jun_13_0901,2leo,2021.2.3,60.001428034001336,
3,7,Plan your Sunday breakfast ,Stimuli/7A1.jpg,Stimuli/7A2.jpg,Stimuli/7A3.jpg,Stimuli/7B1.jpg,Stimuli/7B2.jpg,Stimuli/7B3.jpg,Stimuli/7C1.jpg,Stimuli/7C2.jpg,Stimuli/7C3.jpg,,,,,0,8,8,7,,,,,,,,766.2598180999998,None,767.2598822999998,None,773.2599239000001,None,"[0.306, 0.255]","[-0.377, 0.138]","[0.066, -0.395]","[0.07, 0.393]","[-0.378, -0.136]","[0.304, -0.26]","[0.399, -0.003]","[-0.2, 0.346]","[-0.203, -0.347]",,8.387249759999577,5.320634259999679,2.40434845999971,"[0.43425925925925923, 0.06481481481481481, 0.1]","[-0.012037037037037037, 0.4305555555555556, -0.3416666666666667]","[1, 1, 1]","[0, 0, 0]","[0, 0, 0]","[2.392197899999701, 5.308736500000123, 8.375424099999691]",0.011208459999579645,8.386243859999922,['A3'],['B1'],['C1'],['salmon'],['blue'],['yellow'],788.1256732000002,None,5.0,2.4471020000000863,788.1256732000002,None,806.0584508000002,None,2.0,5.498769400000128,799.9421459,None,9.0,5.548444800000198,792.4925193999998,None,8.0,8.0644099000001,<function functionImportanceB at 0x0000028B07DB0A60>,<function functionImportanceC at 0x0000028B07DB0E18>,<function functionImportanceA at 0x0000028B07DB0840>,,,2.0,4.597769099999823,-0.0,5.498769400000128,6.0,4.681248999999752,<function functiondiffC at 0x0000028B08450048>,<function functiondiffA at 0x0000028B07DB0488>,<function functiondiffB at 0x0000028B07DB0378>,,,,,779.2861514000001,810.1252893000001,None,813.7919812999999,None,818.6748971000002,None,1,001,2022_Jun_13_0901,2leo,2021.2.3,60.001428034001336,
3,44,Plan a party at your place,Stimuli/44A1.jpg,Stimuli/44A2.jpg,Stimuli/44A3.jpg,Stimuli/44B1.jpg,Stimuli/44B2.jpg,Stimuli/44B3.jpg,Stimuli/44C1.jpg,Stimuli/44C2.jpg,Stimuli/44C3.jpg,,,,,0,9,9,44,,,,,,,,822.1083287000001,None,823.1082022,None,829.1081636999997,None,"[0.304, -0.26]","[0.07, 0.393]","[-0.378, -0.136]","[-0.203, -0.347]","[0.399, -0.003]","[-0.2, 0.346]","[0.066, -0.395]","[0.306, 0.255]","[-0.377, 0.138]",,21.07698419999997,4.927499999999782,16.543912999999975,"[-0.1537037037037037, -0.3675925925925926, -0.31574074074074077]","[0.2962962962962963, 0.12037037037037036, -0.06944444444444445]","[1, 1, 1]","[0, 0, 0]","[0, 0, 0]","[4.912423499999932, 16.5285044000002, 21.062160500000118]",0.014226400000097783,21.07602050000014,['A3'],['B3'],['C3'],['yellow'],['blue'],['salmon'],851.8074443999999,None,5.0,1.9464319999997315,851.8074443999999,None,857.7241141999998,None,10.0,4.398616999999831,853.8574008999999,None,9.0,3.848135799999909,862.1740046,None,7.0,4.598561400000108,<function functionImportanceC at 0x0000028B07DB0D08>,<function functionImportanceA at 0x0000028B09204158>,<function functionImportanceB at 0x0000028B09204F28>,,,3.0,4.431112400000075,9.0,4.398616999999831,6.0,5.064292399999886,<function functiondiffA at 0x0000028B07DB06A8>,<function functiondiffC at 0x0000028B08587E18>,<function functiondiffB at 0x0000028B08587BF8>,,,,,830.2617925999998,871.7734215999999,None,866.6905659999998,None,875.1235471999998,None,1,001,2022_Jun_13_0901,2leo,2021.2.3,60.001428034001336,
3,20,Plan a tea party with your friends,Stimuli/20A1.jpg,Stimuli/20A2.jpg,Stimuli/20A3.jpg,Stimuli/20B1.jpg,Stimuli/20B2.jpg,Stimuli/20B3.jpg,Stimuli/20C1.jpg,Stimuli/20C2.jpg,Stimuli/20C3.jpg,,,,,0,10,10,20,,,,,,,,879.0732959000002,None,880.0734182000001,None,886.0733156000001,None,"[0.304, -0.26]","[-0.378, -0.136]","[0.07, 0.393]","[0.066, -0.395]","[-0.377, 0.138]","[0.306, 0.255]","[-0.203, -0.347]","[-0.2, 0.346]","[0.399, -0.003]",,12.548689139999624,8.28221283999983,4.6493342399999165,"[-0.1574074074074074, 0.013888888888888888, 0.08425925925925926]","[-0.35462962962962963, -0.3472222222222222, 0.3527777777777778]","[1, 1, 1]","[0, 0, 0]","[0, 0, 0]","[4.644104999999854, 8.277201200000036, 12.543750499999987]",0.004319939999732014,12.547978539999804,['A3'],['B1'],['C1'],['yellow'],['salmon'],['blue'],902.6559333999999,None,4.0,3.680646799999977,902.6559333999999,None,920.8888897000002,None,2.0,3.5984456000001046,906.3894323999998,None,6.0,6.38127889999987,915.2237607000002,None,9.0,8.048223400000097,<function functionImportanceC at 0x0000028B08450950>,<function functionImportanceB at 0x0000028B08450400>,<function functionImportanceA at 0x0000028B09204D90>,,,-0.0,2.981376100000034,4.0,3.5984456000001046,6.0,3.9810311999999612,<function functiondiffC at 0x0000028B092041E0>,<function functiondiffA at 0x0000028B07DB0AE8>,<function functiondiffB at 0x0000028B07DB0400>,,,,,889.6431877999999,924.4556919000001,None,929.5055017,None,934.0763167,None,1,001,2022_Jun_13_0901,2leo,2021.2.3,60.001428034001336,
3,28,Plan a one-week camping trip in Spain,Stimuli/28A1.jpg,Stimuli/28A2.jpg,Stimuli/28A3.jpg,Stimuli/28B1.jpg,Stimuli/28B2.jpg,Stimuli/28B3.jpg,Stimuli/28C1.jpg,Stimuli/28C2.jpg,Stimuli/28C3.jpg,,,,,0,11,11,28,,,,,,,,936.0217901000001,None,937.0217122999998,None,943.0219587000001,None,"[0.07, 0.393]","[0.304, -0.26]","[-0.378, -0.136]","[0.306, 0.255]","[0.066, -0.395]","[-0.377, 0.138]","[0.399, -0.003]","[-0.203, -0.347]","[-0.2, 0.346]",,17.359364660000665,11.242622760000359,4.759863060000498,"[0.3611111111111111, 0.09166666666666666, -0.3490740740740741]","[-0.017592592592592594, -0.325, -0.20092592592592592]","[1, 1, 1]","[0, 0, 0]","[0, 0, 0]","[4.753693399999975, 11.236620599999696, 17.353508599999714]",0.005261260000679613,17.35848716000055,['A3'],['B2'],['C1'],['blue'],['yellow'],['salmon'],961.9879289999999,None,7.0,4.046793100000286,961.9879289999999,None,975.0041975999998,None,4.0,6.365135099999861,970.3709374,None,3.0,4.598389400000087,966.1546174,None,9.0,4.264859899999919,<function functionImportanceB at 0x0000028B08450598>,<function functionImportanceC at 0x0000028B084507B8>,<function functionImportanceA at 0x0000028B08450488>,,,2.0,3.514371900000242,5.0,6.365135099999861,7.0,3.847790000000259,<function functiondiffA at 0x0000028B08450A60>,<function functiondiffC at 0x0000028B08450620>,<function functiondiffB at 0x0000028B08450BF8>,,,,,944.1493420000002,985.2207090000002,None,981.3541682,None,991.2373281999999,None,1,001,2022_Jun_13_0901,2leo,2021.2.3,60.001428034001336,
3,25,Plan how you want to read a book in your free time ,Stimuli/25A1.jpg,Stimuli/25A2.jpg,Stimuli/25A3.jpg,Stimuli/25B1.jpg,Stimuli/25B2.jpg,Stimuli/25B3.jpg,Stimuli/25C1.jpg,Stimuli/25C2.jpg,Stimuli/25C3.jpg,,,,,0,12,12,25,,,,,,,,994.2702537999999,None,995.2702230999998,None,1001.2704042,None,"[-0.203, -0.347]","[0.399, -0.003]","[-0.2, 0.346]","[0.304, -0.26]","[0.07, 0.393]","[-0.378, -0.136]","[0.066, -0.395]","[0.306, 0.255]","[-0.377, 0.138]",,18.02074318999985,10.154672189999928,4.688111290000052,"[-0.31666666666666665, -0.375, -0.18055555555555555]","[0.08981481481481482, -0.18333333333333332, -0.35185185185185186]","[1, 1, 1]","[0, 0, 0]","[0, 0, 0]","[4.682595199999923, 10.149445800000194, 18.015939100000196]",0.004380289999971865,18.020248289999927,['A1'],['B3'],['C3'],['blue'],['salmon'],['yellow'],1021.2195673000001,None,7.0,2.413857099999859,1021.2195673000001,None,1027.2030865000002,None,4.0,3.981571300000269,1024.0028813,None,10.0,3.480968800000028,1031.2360743,None,2.0,5.048134399999981,<function functionImportanceC at 0x0000028B08450840>,<function functionImportanceA at 0x0000028B08450B70>,<function functionImportanceB at 0x0000028B08450F28>,,,6.0,7.014271000000008,0.0,3.981571300000269,7.0,3.9643529999998464,<function functiondiffC at 0x0000028B084506A8>,<function functiondiffA at 0x0000028B08450D90>,<function functiondiffB at 0x0000028B08450AE8>,,,,,1002.7360641999999,1036.3195891999999,None,1039.6358842999998,None,1043.635844,None,1,001,2022_Jun_13_0901,2leo,2021.2.3,60.001428034001336,
3,34,Plan what car you want to buy,Stimuli/34A1.jpg,Stimuli/34A2.jpg,Stimuli/34A3.jpg,Stimuli/34B1.jpg,Stimuli/34B2.jpg,Stimuli/34B3.jpg,Stimuli/34C1.jpg,Stimuli/34C2.jpg,Stimuli/34C3.jpg,,,,,0,13,13,34,,,,,,,,1050.1521377999998,None,1051.1520771,None,1057.1522710999998,None,"[0.304, -0.26]","[0.07, 0.393]","[-0.378, -0.136]","[0.066, -0.395]","[0.306, 0.255]","[-0.377, 0.138]","[-0.203, -0.347]","[0.399, -0.003]","[-0.2, 0.346]",,9.548866779999116,5.665956679998999,13.466364779999367,"[0.05555555555555555, 0.35462962962962963, 0.3712962962962963]","[-0.3685185185185185, -0.2712962962962963, 0.017592592592592594]","[1, 1, 1]","[0, 0, 0]","[0, 0, 0]","[5.654892300000029, 9.538099099999727, 13.454930299999887]",0.010330779999094375,13.465004279998993,['A1'],['B1'],['C2'],['yellow'],['blue'],['salmon'],1074.1681866,None,10.0,2.646675399999822,1074.1681866,None,1083.3681133999999,None,9.0,3.8152216000003136,1076.8851267999999,None,8.0,5.4484041999999135,1087.1349082000002,None,7.0,4.598284100000001,<function functionImportanceC at 0x0000028B08450510>,<function functionImportanceA at 0x0000028B092049D8>,<function functionImportanceB at 0x0000028B07DB0048>,,,4.0,6.297583800000211,2.0,3.8152216000003136,1.0,6.297566799999913,<function functiondiffB at 0x0000028B084508C8>,<function functiondiffA at 0x0000028B08450D08>,<function functiondiffC at 0x0000028B08587AE8>,,,,,1060.2451342,1103.4009197,None,1097.4343982999999,None,1091.0020562,None,1,001,2022_Jun_13_0901,2leo,2021.2.3,60.001428034001336,
3,11,Plan a hike in nature on a free day,Stimuli/11A1.jpg,Stimuli/11A2.jpg,Stimuli/11A3.jpg,Stimuli/11B1.jpg,Stimuli/11B2.jpg,Stimuli/11B3.jpg,Stimuli/11C1.jpg,Stimuli/11C2.jpg,Stimuli/11C3.jpg,,,,,0,14,14,11,,,,,,,,1108.1672856999999,None,1109.1675862000002,None,1115.1672552999999,None,"[-0.378, -0.136]","[0.07, 0.393]","[0.304, -0.26]","[-0.2, 0.346]","[0.399, -0.003]","[-0.203, -0.347]","[-0.377, 0.138]","[0.306, 0.255]","[0.066, -0.395]",,11.283995830000094,4.450676229999772,8.517707829999836,"[0.3648148148148148, 0.3296296296296296, 0.09074074074074075]","[0.008333333333333333, 0.21944444444444444, 0.44166666666666665]","[1, 1, 1]","[0, 0, 0]","[0, 0, 0]","[4.440592999999808, 8.50738659999979, 11.274167300000045]",0.009319729999788251,11.283160829999815,['A2'],['B2'],['C2'],['salmon'],['yellow'],['blue'],1128.0667036999998,None,8.0,2.480445800000325,1128.0667036999998,None,1136.5333873,None,9.0,2.998330800000076,1139.5333295,None,5.0,3.181706999999733,1130.6502065,None,8.0,5.881098500000007,<function functionImportanceB at 0x0000028B0985C510>,<function functionImportanceA at 0x0000028B08587268>,<function functionImportanceC at 0x0000028B0985C620>,,,3.0,3.7315476999997372,4.0,2.998330800000076,0.0,6.714535500000238,<function functiondiffA at 0x0000028B084502F0>,<function functiondiffB at 0x0000028B08450158>,<function functiondiffC at 0x0000028B0985C2F0>,,,,,1116.3078603999998,1153.1831054,None,1142.6998752,None,1149.4332009999998,None,1,001,2022_Jun_13_0901,2leo,2021.2.3,60.001428034001336,
3,0,Plan a barbecue,Stimuli/0A1.jpg,Stimuli/0A2.jpg,Stimuli/0A3.jpg,Stimuli/0B1.jpg,Stimuli/0B2.jpg,Stimuli/0B3.jpg,Stimuli/0C1.jpg,Stimuli/0C2.jpg,Stimuli/0C3.jpg,,,,,0,15,15,0,,,,,,,,1169.8657073999998,None,1170.8660349000002,None,1176.8658455,None,"[0.304, -0.26]","[0.07, 0.393]","[-0.378, -0.136]","[-0.203, -0.347]","[0.399, -0.003]","[-0.2, 0.346]","[0.066, -0.395]","[0.306, 0.255]","[-0.377, 0.138]",,7.434851889999663,3.9186023899997053,11.102073889999701,"[-0.16574074074074074, 0.3138888888888889, 0.1]","[-0.3611111111111111, -0.29444444444444445, -0.34629629629629627]","[1, 1, 1]","[0, 0, 0]","[0, 0, 0]","[3.9178603999998813, 7.434361099999933, 11.101065599999856]",4.859000000578817e-05,11.101007490000029,['A1'],['B1'],['C1'],['blue'],['yellow'],['salmon'],1190.9152531,None,8.0,2.5970949000002292,1190.9152531,None,1205.6146893,None,6.0,7.28152769999997,1198.9650720999998,None,2.0,5.2985663999998,1193.5818491999999,None,1.0,5.380806200000279,<function functionImportanceB at 0x0000028B0985CEA0>,<function functionImportanceC at 0x0000028B0985CD08>,<function functionImportanceA at 0x0000028B0985C488>,,,3.0,3.381694499999867,6.0,7.28152769999997,1.0,4.598037799999929,<function functiondiffC at 0x0000028B07DB08C8>,<function functiondiffB at 0x0000028B0985C378>,<function functiondiffA at 0x0000028B0985CAE8>,,,,,1179.3431891999999,1211.5649124000001,None,1219.8479647999998,None,1216.0480693,None,1,001,2022_Jun_13_0901,2leo,2021.2.3,60.001428034001336,
3,30,Plan your sport work out for tomorrow,Stimuli/30A1.jpg,Stimuli/30A2.jpg,Stimuli/30A3.jpg,Stimuli/30B1.jpg,Stimuli/30B2.jpg,Stimuli/30B3.jpg,Stimuli/30C1.jpg,Stimuli/30C2.jpg,Stimuli/30C3.jpg,,,,,0,16,16,30,,,,,,,,1223.5639974,None,1224.5642521999998,None,1230.5643116,None,"[0.306, 0.255]","[0.066, -0.395]","[-0.377, 0.138]","[0.07, 0.393]","[0.304, -0.26]","[-0.378, -0.136]","[0.399, -0.003]","[-0.203, -0.347]","[-0.2, 0.346]",,9.721073769999293,3.588132869999299,15.204606469999362,"[0.05555555555555555, 0.3425925925925926, -0.18981481481481483]","[0.33055555555555555, 0.30462962962962964, -0.3685185185185185]","[1, 1, 1]","[0, 0, 0]","[0, 0, 0]","[3.5759977000002436, 9.709191400000236, 15.192155100000036]",0.01146096999900692,15.20347566999908,['A1'],['B1'],['C2'],['yellow'],['salmon'],['blue'],1247.4135837,None,5.0,2.431065900000249,1247.4135837,None,1261.4799394000001,None,10.0,5.881565000000137,1256.8636339,None,3.0,4.564851600000111,1249.9636254000002,None,9.0,6.931162699999732,<function functionImportanceB at 0x0000028B0985C950>,<function functionImportanceC at 0x0000028B0985C730>,<function functionImportanceA at 0x0000028B084509D8>,,,0.0,3.264528700000028,5.0,5.881565000000137,7.0,4.11414539999987,<function functiondiffA at 0x0000028B07DB07B8>,<function functiondiffB at 0x0000028B0985C598>,<function functiondiffC at 0x0000028B0985CF28>,,,,,1231.7362021,1274.7298165000002,None,1267.3131448999998,None,1271.4630778,None,1,001,2022_Jun_13_0901,2leo,2021.2.3,60.001428034001336,
3,15,Plan your own Pasta for lunch,Stimuli/15A1.jpg,Stimuli/15A2.jpg,Stimuli/15A3.jpg,Stimuli/15B1.jpg,Stimuli/15B2.jpg,Stimuli/15B3.jpg,Stimuli/15C1.jpg,Stimuli/15C2.jpg,Stimuli/15C3.jpg,,,,,0,17,17,15,,,,,,,,1278.1629248999998,None,1279.1644554999998,None,1285.1796633999998,None,"[0.306, 0.255]","[-0.377, 0.138]","[0.066, -0.395]","[0.07, 0.393]","[-0.378, -0.136]","[0.304, -0.26]","[0.399, -0.003]","[-0.2, 0.346]","[-0.203, -0.347]",,6.338280479999867,9.741317179999896,12.97230548000016,"[0.3175925925925926, 0.06851851851851852, -0.13425925925925927]","[0.2324074074074074, 0.3314814814814815, -0.28425925925925927]","[1, 1, 1]","[0, 0, 0]","[0, 0, 0]","[6.322483199999624, 9.723904599999969, 12.955850299999838]",0.015395379999972647,12.971042380000199,['A1'],['B1'],['C3'],['salmon'],['blue'],['yellow'],1300.5122311,None,7.0,3.9636931999998524,1300.5122311,None,1313.8785395999998,None,2.0,4.1984195,1308.645739,None,8.0,5.84804209999993,1304.5291054999998,None,10.0,3.3808601999999155,<function functionImportanceB at 0x0000028B08450378>,<function functionImportanceC at 0x0000028B0B48B730>,<function functionImportanceA at 0x0000028B07DB0BF8>,,,5.0,4.214521200000036,2.0,4.1984195,9.0,4.281199199999719,<function functiondiffA at 0x0000028B0985C048>,<function functiondiffC at 0x0000028B08450EA0>,<function functiondiffB at 0x0000028B0985CE18>,,,,,1287.0860621000002,1322.4285715,None,1317.9952534999998,None,1329.4949502999998,None,1,001,2022_Jun_13_0901,2leo,2021.2.3,60.001428034001336,
3,43,Plan your dream house,Stimuli/43A1.jpg,Stimuli/43A2.jpg,Stimuli/43A3.jpg,Stimuli/43B1.jpg,Stimuli/43B2.jpg,Stimuli/43B3.jpg,Stimuli/43C1.jpg,Stimuli/43C2.jpg,Stimuli/43C3.jpg,,,,,0,18,18,43,,,,,,,,1333.2282939000002,None,1334.2297135,None,1340.2450029000001,None,"[0.07, 0.393]","[0.304, -0.26]","[-0.378, -0.136]","[0.306, 0.255]","[0.066, -0.395]","[-0.377, 0.138]","[0.399, -0.003]","[-0.203, -0.347]","[-0.2, 0.346]",,15.683948429999873,3.6513786299997264,8.501706829999875,"[-0.3212962962962963, -0.1824074074074074, 0.05925925925925926]","[0.09259259259259259, 0.3101851851851852, 0.31851851851851853]","[1, 1, 1]","[0, 0, 0]","[0, 0, 0]","[3.640941699999985, 8.49098499999991, 15.674016699999811]",0.00952432999974917,15.683251429999927,['A1'],['B3'],['C3'],['blue'],['salmon'],['yellow'],1357.5441154999999,None,3.0,3.82980039999984,1357.5441154999999,None,1369.6607181999998,None,7.0,4.482006400000046,1365.6274137999999,None,8.0,3.9987356999999975,1361.4274132,None,2.0,4.164530500000183,<function functionImportanceB at 0x0000028B0B48B598>,<function functionImportanceC at 0x0000028B0B48B620>,<function functionImportanceA at 0x0000028B08450268>,,,4.0,4.864550400000098,3.0,4.482006400000046,7.0,5.397559900000033,<function functiondiffA at 0x0000028B0985C8C8>,<function functiondiffC at 0x0000028B0B48B1E0>,<function functiondiffB at 0x0000028B0985CA60>,,,,,1341.3864045999999,1379.5271051999998,None,1374.1106254000001,None,1383.0436879,None,1,001,2022_Jun_13_0901,2leo,2021.2.3,60.001428034001336,
3,10,Plan a restaurant visit with your family on the weekend ,Stimuli/10A1.jpg,Stimuli/10A2.jpg,Stimuli/10A3.jpg,Stimuli/10B1.jpg,Stimuli/10B2.jpg,Stimuli/10B3.jpg,Stimuli/10C1.jpg,Stimuli/10C2.jpg,Stimuli/10C3.jpg,,,,,0,19,19,10,,,,,,,,1387.4268225,None,1388.4265811,None,1394.4265912,None,"[0.07, 0.393]","[-0.378, -0.136]","[0.304, -0.26]","[0.399, -0.003]","[-0.2, 0.346]","[-0.203, -0.347]","[0.306, 0.255]","[-0.377, 0.138]","[0.066, -0.395]",,17.86922844999981,6.536221849999947,3.686695249999957,"[0.06851851851851852, -0.21574074074074073, -0.40555555555555556]","[-0.32037037037037036, -0.3111111111111111, -0.1824074074074074]","[1, 1, 1]","[0, 0, 0]","[0, 0, 0]","[3.669155100000353, 6.518812300000263, 17.85227050000003]",0.01646474999961356,17.86830594999992,['A2'],['B3'],['C3'],['salmon'],['yellow'],['blue'],1416.6924820999998,None,4.0,3.69717589999982,1416.6924820999998,None,1420.5592434999999,None,8.0,7.14784759999975,1436.7089528000001,None,2.0,5.198562800000218,1430.3460845,None,6.0,9.081547000000228,<function functionImportanceA at 0x0000028B0985C7B8>,<function functionImportanceB at 0x0000028B0985C840>,<function functionImportanceC at 0x0000028B0B48B6A8>,,,0.0,4.781074399999852,3.0,7.14784759999975,8.0,4.381055699999706,<function functiondiffA at 0x0000028B0985C0D0>,<function functiondiffC at 0x0000028B0B48B488>,<function functiondiffB at 0x0000028B0985CD90>,,,,,1398.3731615000002,1446.3085932,None,1441.9253468000002,None,1451.8750756,None,1,001,2022_Jun_13_0901,2leo,2021.2.3,60.001428034001336,
3,33,Plan the items to decorate your Christmas tree,Stimuli/33A1.jpg,Stimuli/33A2.jpg,Stimuli/33A3.jpg,Stimuli/33B1.jpg,Stimuli/33B2.jpg,Stimuli/33B3.jpg,Stimuli/33C1.jpg,Stimuli/33C2.jpg,Stimuli/33C3.jpg,,,,,0,20,20,33,,,,,,,,1455.39151,None,1456.3915416999998,None,1462.3916516,None,"[0.07, 0.393]","[0.304, -0.26]","[-0.378, -0.136]","[0.399, -0.003]","[-0.203, -0.347]","[-0.2, 0.346]","[0.306, 0.255]","[0.066, -0.395]","[-0.377, 0.138]",,7.896903700000166,12.697157800000241,3.5478339000001142,"[-0.3212962962962963, 0.13518518518518519, -0.14907407407407408]","[0.0787037037037037, 0.3962962962962963, -0.30277777777777776]","[1, 1, 1]","[0, 0, 0]","[0, 0, 0]","[3.5447559999997793, 7.894504699999743, 12.694402699999955]",0.0019828000004054047,12.69615660000045,['A1'],['B2'],['C3'],['yellow'],['blue'],['salmon'],1477.2409806,None,3.0,2.1634573000001183,1477.2409806,None,1495.7249529,None,9.0,3.9484886000000188,1479.4907852000001,None,5.0,7.097798700000112,1486.6574956999998,None,7.0,8.581754199999978,<function functionImportanceC at 0x0000028B08450C80>,<function functionImportanceB at 0x0000028B084501E0>,<function functionImportanceA at 0x0000028B08450E18>,,,5.0,5.214751200000137,2.0,3.9484886000000188,-0.0,6.264256499999647,<function functiondiffC at 0x0000028B0B48BBF8>,<function functiondiffA at 0x0000028B0B48B400>,<function functiondiffB at 0x0000028B0B48B840>,,,,,1464.0746663999998,1499.1238853999998,None,1503.5405769999998,None,1509.6903155,None,1,001,2022_Jun_13_0901,2leo,2021.2.3,60.001428034001336,
3,29,Plan a day in the mountains ,Stimuli/29A1.jpg,Stimuli/29A2.jpg,Stimuli/29A3.jpg,Stimuli/29B1.jpg,Stimuli/29B2.jpg,Stimuli/29B3.jpg,Stimuli/29C1.jpg,Stimuli/29C2.jpg,Stimuli/29C3.jpg,,,,,0,21,21,29,,,,,,,,1514.4235264,None,1515.4234056999999,None,1521.4234394999999,None,"[-0.203, -0.347]","[0.399, -0.003]","[-0.2, 0.346]","[0.304, -0.26]","[0.07, 0.393]","[-0.378, -0.136]","[0.066, -0.395]","[0.306, 0.255]","[-0.377, 0.138]",,3.0250126699997963,13.174887369999851,7.825283969999873,"[0.40555555555555556, 0.10740740740740741, 0.2777777777777778]","[-0.004629629629629629, -0.41203703703703703, -0.2462962962962963]","[1, 1, 1]","[0, 0, 0]","[0, 0, 0]","[3.0111814000001687, 7.811043800000334, 13.160896400000183]",0.013304770000104327,13.173936669999875,['A2'],['B1'],['C1'],['salmon'],['blue'],['yellow'],1536.2394774999998,None,10.0,2.130481300000156,1536.2394774999998,None,1538.5061848,None,10.0,3.4312621999997646,1541.8911552999998,None,10.0,5.3988257000000885,1547.2893571,None,2.0,4.114944899999955,<function functionImportanceA at 0x0000028B084500D0>,<function functionImportanceC at 0x0000028B0B48B268>,<function functionImportanceB at 0x0000028B0B48B158>,,,1.0,5.081175799999983,3.0,3.4312621999997646,0.0,3.0479278999996495,<function functiondiffB at 0x0000028B0B48B0D0>,<function functiondiffA at 0x0000028B0B48BC80>,<function functiondiffC at 0x0000028B0B48B7B8>,,,,,1522.5931937999999,1559.5721733,None,1556.522394,None,1551.4058354,None,1,001,2022_Jun_13_0901,2leo,2021.2.3,60.001428034001336,
3,41,Plan how you want to have dinner tonight ,Stimuli/41A1.jpg,Stimuli/41A2.jpg,Stimuli/41A3.jpg,Stimuli/41B1.jpg,Stimuli/41B2.jpg,Stimuli/41B3.jpg,Stimuli/41C1.jpg,Stimuli/41C2.jpg,Stimuli/41C3.jpg,,,,,0,22,22,41,,,,,,,,1563.3886932,None,1564.3888134,None,1570.3888268,None,"[0.066, -0.395]","[0.306, 0.255]","[-0.377, 0.138]","[-0.203, -0.347]","[0.399, -0.003]","[-0.2, 0.346]","[0.304, -0.26]","[0.07, 0.393]","[-0.378, -0.136]",,9.150474499999746,4.733943299999737,15.151132299999972,"[-0.13796296296296295, 0.07407407407407407, -0.38333333333333336]","[0.2962962962962963, -0.4203703703703704, -0.14444444444444443]","[1, 1, 1]","[0, 0, 0]","[0, 0, 0]","[4.722725800000262, 9.139664799999991, 15.139552099999946]",0.010369000000082451,15.14960710000014,['A1'],['B3'],['C3'],['blue'],['yellow'],['salmon'],1587.3380298000002,None,3.0,2.8958943999996336,1587.3380298000002,None,1590.3215136,None,10.0,4.231255799999872,1594.7214172999998,None,2.0,4.614880499999799,1599.1877746,None,7.0,7.547842299999957,<function functionImportanceA at 0x0000028B0B48B950>,<function functionImportanceC at 0x0000028B08450730>,<function functionImportanceB at 0x0000028B0B48BB70>,,,2.0,3.5146294999999554,6.0,4.231255799999872,0.0,4.4817032999999356,<function functiondiffC at 0x0000028B0B48BD08>,<function functiondiffB at 0x0000028B0985C400>,<function functiondiffA at 0x0000028B0985CC80>,,,,,1571.7161713,1606.7545414,None,1616.4042924,None,1612.8709647,None,1,001,2022_Jun_13_0901,2leo,2021.2.3,60.001428034001336,
3,27,Plan what festival to visit with your friends,Stimuli/27A1.jpg,Stimuli/27A2.jpg,Stimuli/27A3.jpg,Stimuli/27B1.jpg,Stimuli/27B2.jpg,Stimuli/27B3.jpg,Stimuli/27C1.jpg,Stimuli/27C2.jpg,Stimuli/27C3.jpg,,,,,0,23,23,27,,,,,,,,1620.4038405000001,None,1621.4038340000002,None,1627.4039999000001,None,"[-0.377, 0.138]","[0.066, -0.395]","[0.306, 0.255]","[-0.378, -0.136]","[0.304, -0.26]","[0.07, 0.393]","[-0.2, 0.346]","[-0.203, -0.347]","[0.399, -0.003]",,10.38918208999985,15.47262598999987,3.0898296899999877,"[0.3611111111111111, 0.3731481481481482, 0.1259259259259259]","[0.018518518518518517, 0.2462962962962963, 0.3611111111111111]","[1, 1, 1]","[0, 0, 0]","[0, 0, 0]","[3.0769758999999794, 10.376804300000003, 15.459987400000045]",0.011767989999952988,15.47166199000003,['A3'],['B3'],['C3'],['blue'],['salmon'],['yellow'],1644.4531437,None,2.0,2.0471950999999535,1644.4531437,None,1646.5534549999998,None,8.0,4.831196399999953,1651.4198299999998,None,9.0,4.313792299999932,1655.7532425,None,3.0,3.3150825999996414,<function functionImportanceA at 0x0000028B0985CB70>,<function functionImportanceC at 0x0000028B0BA85158>,<function functionImportanceB at 0x0000028B0B48B9D8>,,,6.0,3.597497100000055,2.0,4.831196399999953,3.0,3.681028100000276,<function functiondiffB at 0x0000028B0B48BF28>,<function functiondiffC at 0x0000028B0B48BE18>,<function functiondiffA at 0x0000028B085877B8>,,,,,1628.5091031000002,1662.6697217,None,1665.5361895,None,1659.0531336999998,None,1,001,2022_Jun_13_0901,2leo,2021.2.3,60.001428034001336,
3,42,Plan how to draw a painting ,Stimuli/42A1.jpg,Stimuli/42A2.jpg,Stimuli/42A3.jpg,Stimuli/42B1.jpg,Stimuli/42B2.jpg,Stimuli/42B3.jpg,Stimuli/42C1.jpg,Stimuli/42C2.jpg,Stimuli/42C3.jpg,,,,,0,24,24,42,,,,,,,,1668.7361052,None,1669.7360272,None,1675.7359743000002,None,"[0.07, 0.393]","[0.304, -0.26]","[-0.378, -0.136]","[0.399, -0.003]","[-0.203, -0.347]","[-0.2, 0.346]","[0.306, 0.255]","[0.066, -0.395]","[-0.377, 0.138]",,10.806805689999237,14.07346638999934,7.424191689999134,"[-0.39444444444444443, 0.25462962962962965, -0.1259259259259259]","[0.17685185185185184, -0.21388888888888888, -0.3]","[1, 1, 1]","[0, 0, 0]","[0, 0, 0]","[7.410046500000135, 10.793227099999967, 14.059622799999943]",0.013075489999209822,14.072454389999166,['A2'],['B2'],['C3'],['blue'],['salmon'],['yellow'],1691.5520895,None,5.0,2.6299973999998656,1691.5520895,None,1702.635052,None,4.0,6.015035199999602,1694.2521262,None,9.0,5.0145643999999265,1699.2685083000001,None,10.0,3.1818779999998696,<function functionImportanceC at 0x0000028B0BA85730>,<function functionImportanceB at 0x0000028B0BA857B8>,<function functionImportanceA at 0x0000028B0B48BD90>,,,0.0,4.431093399999554,5.0,6.015035199999602,7.0,5.1812979000005726,<function functiondiffB at 0x0000028B0BA85B70>,<function functiondiffA at 0x0000028B0B48B8C8>,<function functiondiffC at 0x0000028B0BA852F0>,,,,,1677.0076909,1718.1181607000003,None,1712.9682807000004,None,1708.4851170999996,None,1,001,2022_Jun_13_0901,2leo,2021.2.3,60.001428034001336,
3,14,Plan your own Pizza for dinner,Stimuli/14A1.jpg,Stimuli/14A2.jpg,Stimuli/14A3.jpg,Stimuli/14B1.jpg,Stimuli/14B2.jpg,Stimuli/14B3.jpg,Stimuli/14C1.jpg,Stimuli/14C2.jpg,Stimuli/14C3.jpg,,,,,0,25,25,14,,,,,,,,1722.7178179999996,None,1723.7177944,None,1729.7180094999999,None,"[-0.2, 0.346]","[-0.203, -0.347]","[0.399, -0.003]","[-0.377, 0.138]","[0.066, -0.395]","[0.306, 0.255]","[-0.378, -0.136]","[0.304, -0.26]","[0.07, 0.393]",,8.236750799999754,3.820625800000016,16.154033699999673,"[-0.3648148148148148, -0.21388888888888888, 0.2916666666666667]","[0.09444444444444444, 0.3101851851851852, -0.2222222222222222]","[1, 1, 1]","[0, 0, 0]","[0, 0, 0]","[3.808919400000377, 8.225338500000362, 16.14192130000083]",0.011009400000148162,16.152778699999544,['A1'],['B1'],['C2'],['salmon'],['blue'],['yellow'],1747.5006464000003,None,7.0,3.3305123000000094,1747.5006464000003,None,1754.6172731000001,None,5.0,5.215299000000414,1759.8171264999996,None,2.0,4.348533599999428,1750.9507597999996,None,10.0,3.697831999999835,<function functionImportanceB at 0x0000028B0BA85620>,<function functionImportanceA at 0x0000028B0BA85488>,<function functionImportanceC at 0x0000028B0BA85268>,,,1.0,3.331336199999896,8.0,5.215299000000414,3.0,7.164421299999958,<function functiondiffA at 0x0000028B0BA85BF8>,<function functiondiffB at 0x0000028B0BA85C80>,<function functiondiffC at 0x0000028B0BA85D08>,,,,,1730.8725602,1774.7167667999997,None,1764.1836158,None,1771.3834229,None,1,001,2022_Jun_13_0901,2leo,2021.2.3,60.001428034001336,
3,37,Plan your cleaning routine ,Stimuli/37A1.jpg,Stimuli/37A2.jpg,Stimuli/37A3.jpg,Stimuli/37B1.jpg,Stimuli/37B2.jpg,Stimuli/37B3.jpg,Stimuli/37C1.jpg,Stimuli/37C2.jpg,Stimuli/37C3.jpg,,,,,0,26,26,37,,,,,,,,1776.999727,None,1777.9997164000001,None,1783.9997958999998,None,"[0.399, -0.003]","[-0.203, -0.347]","[-0.2, 0.346]","[0.306, 0.255]","[0.066, -0.395]","[-0.377, 0.138]","[0.07, 0.393]","[0.304, -0.26]","[-0.378, -0.136]",,5.183266689999073,23.466224689998853,15.466600089998792,"[-0.16666666666666666, 0.07592592592592592, -0.3212962962962963]","[0.3638888888888889, 0.3574074074074074, 0.16666666666666666]","[1, 1, 1]","[0, 0, 0]","[0, 0, 0]","[5.173961899999995, 15.456966300000204, 23.456664599999385]",0.00870888999907038,23.46520288999909,['A3'],['B3'],['C1'],['blue'],['salmon'],['yellow'],1809.0489276000003,None,5.0,2.963335299999926,1809.0489276000003,None,1820.7821305000002,None,10.0,6.398217799999657,1827.1818792,None,2.0,5.932012699999177,1812.0657783000001,None,9.0,8.680895299999975,<function functionImportanceB at 0x0000028B0B48B510>,<function functionImportanceA at 0x0000028B0B48B2F0>,<function functionImportanceC at 0x0000028B0B48BA60>,,,5.0,5.497612400000435,9.0,6.398217799999657,2.0,5.381429799999751,<function functiondiffB at 0x0000028B0BA858C8>,<function functiondiffA at 0x0000028B0BA85378>,<function functiondiffC at 0x0000028B0BA85A60>,,,,,1785.1073026,1844.0315263999996,None,1838.6317290000002,None,1833.1150159000003,None,1,001,2022_Jun_13_0901,2leo,2021.2.3,60.001428034001336,
3,24,Plan your Monday morning on a workday ,Stimuli/24A1.jpg,Stimuli/24A2.jpg,Stimuli/24A3.jpg,Stimuli/24B1.jpg,Stimuli/24B2.jpg,Stimuli/24B3.jpg,Stimuli/24C1.jpg,Stimuli/24C2.jpg,Stimuli/24C3.jpg,,,,,0,27,27,24,,,,,,,,1848.6645940000003,None,1849.6648738,None,1855.6649433999996,None,"[0.306, 0.255]","[-0.377, 0.138]","[0.066, -0.395]","[0.07, 0.393]","[-0.378, -0.136]","[0.304, -0.26]","[0.399, -0.003]","[-0.2, 0.346]","[-0.203, -0.347]",,16.818027719999918,12.551364919999287,5.434879120000005,"[0.3675925925925926, -0.3333333333333333, 0.1037037037037037]","[0.002777777777777778, -0.06296296296296296, -0.37592592592592594]","[1, 1, 1]","[0, 0, 0]","[0, 0, 0]","[5.4244848999996975, 12.541060200000175, 16.808034199999383]",0.009362320000036561,16.817043420000118,['A3'],['B2'],['C1'],['blue'],['salmon'],['yellow'],1874.0473103999998,None,8.0,3.1294717000000674,1874.0473103999998,None,1883.2300807999995,None,10.0,4.898386100000607,1877.2307982999996,None,8.0,5.981209800000215,1888.1469630999995,None,2.0,3.4149804999997286,<function functionImportanceC at 0x0000028B0BA850D0>,<function functionImportanceA at 0x0000028B0B48B048>,<function functionImportanceB at 0x0000028B0B48BAE8>,,,4.0,4.34742450000067,7.0,4.898386100000607,0.0,3.0982794000001377,<function functiondiffB at 0x0000028B0BA85D90>,<function functiondiffA at 0x0000028B0BA851E0>,<function functiondiffC at 0x0000028B0BA85E18>,,,,,1856.7543942999996,1899.0465185999997,None,1895.9305786999998,None,1891.5637077999995,None,1,001,2022_Jun_13_0901,2leo,2021.2.3,60.001428034001336,
3,22,Plan a beach day with your friends,Stimuli/22A1.jpg,Stimuli/22A2.jpg,Stimuli/22A3.jpg,Stimuli/22B1.jpg,Stimuli/22B2.jpg,Stimuli/22B3.jpg,Stimuli/22C1.jpg,Stimuli/22C2.jpg,Stimuli/22C3.jpg,,,,,0,28,28,22,,,,,,,,1902.3462103999996,None,1903.3464504999997,None,1909.3466290000001,None,"[0.07, 0.393]","[-0.378, -0.136]","[0.304, -0.26]","[0.306, 0.255]","[-0.377, 0.138]","[0.066, -0.395]","[0.399, -0.003]","[-0.2, 0.346]","[-0.203, -0.347]",,3.855227930000183,11.62163253000017,7.955546129999675,"[0.2657407407407407, -0.2388888888888889, 0.38333333333333336]","[-0.2574074074074074, 0.275, 0.25925925925925924]","[1, 1, 1]","[0, 0, 0]","[0, 0, 0]","[3.843081600000005, 7.943002400000296, 11.609428499999922]",0.011538929999915126,11.620764430000236,['A3'],['B1'],['C2'],['yellow'],['salmon'],['blue'],1922.579225,None,8.0,2.0139923999995517,1922.579225,None,1929.8623704999995,None,5.0,4.515069799999765,1924.6795192000004,None,9.0,5.181531299999733,1934.3791637,None,2.0,3.0649932999995144,<function functionImportanceC at 0x0000028B1010B400>,<function functionImportanceA at 0x0000028B0B48B378>,<function functionImportanceB at 0x0000028B0B48BEA0>,,,6.0,5.247759299999416,1.0,4.515069799999765,-0.0,4.7811157999994975,<function functiondiffC at 0x0000028B0BA859D8>,<function functiondiffA at 0x0000028B0BA85AE8>,<function functiondiffB at 0x0000028B0BA85400>,,,,,1910.4848905000003,1937.4457166999996,None,1941.5454818000003,None,1946.3455171,None,1,001,2022_Jun_13_0901,2leo,2021.2.3,60.001428034001336,
3,40,Plan to see a sports event ,Stimuli/40A1.jpg,Stimuli/40A2.jpg,Stimuli/40A3.jpg,Stimuli/40B1.jpg,Stimuli/40B2.jpg,Stimuli/40B3.jpg,Stimuli/40C1.jpg,Stimuli/40C2.jpg,Stimuli/40C3.jpg,,,,,0,29,29,40,,,,,,,,1951.1118166,None,1952.1119572000002,None,1958.1119921000004,None,"[-0.378, -0.136]","[0.304, -0.26]","[0.07, 0.393]","[-0.377, 0.138]","[0.066, -0.395]","[0.306, 0.255]","[-0.2, 0.346]","[-0.203, -0.347]","[0.399, -0.003]",,10.402768860000833,6.019085960000666,16.6859135600007,"[-0.32407407407407407, 0.37407407407407406, -0.12685185185185185]","[0.1175925925925926, -0.29814814814814816, -0.27870370370370373]","[1, 1, 1]","[0, 0, 0]","[0, 0, 0]","[6.0157374000000345, 10.399541499999941, 16.682227399999647]",0.0026823600001080194,16.684700960000555,['A2'],['B1'],['C2'],['yellow'],['salmon'],['blue'],1976.5777838,None,6.0,3.780615100000432,1976.5777838,None,1980.4446728999997,None,10.0,6.547679399999652,1992.6108164000002,None,4.0,4.881999799999903,1987.1444849000004,None,10.0,5.598160999999891,<function functionImportanceA at 0x0000028B1010BD08>,<function functionImportanceB at 0x0000028B1010BC80>,<function functionImportanceC at 0x0000028B1010B488>,,,-0.0,2.664930599999934,9.0,6.547679399999652,3.0,3.6479613000001336,<function functiondiffC at 0x0000028B1010B620>,<function functiondiffA at 0x0000028B1010B1E0>,<function functiondiffB at 0x0000028B1010B7B8>,,,,,1959.4119695000004,1997.4773466000001,None,2000.8608914000001,None,2004.5607531,None,1,001,2022_Jun_13_0901,2leo,2021.2.3,60.001428034001336,
3,3,Plan a movie night with a friend,Stimuli/3A1.jpg,Stimuli/3A2.jpg,Stimuli/3A3.jpg,Stimuli/3B1.jpg,Stimuli/3B2.jpg,Stimuli/3B3.jpg,Stimuli/3C1.jpg,Stimuli/3C2.jpg,Stimuli/3C3.jpg,,,,,0,30,30,3,,,,,,,,2013.6437223999997,None,2014.6437969000003,None,2020.6435132000001,None,"[-0.378, -0.136]","[0.304, -0.26]","[0.07, 0.393]","[-0.2, 0.346]","[-0.203, -0.347]","[0.399, -0.003]","[-0.377, 0.138]","[0.066, -0.395]","[0.306, 0.255]",,11.14249966999978,4.126578569999765,7.559797469999467,"[0.4444444444444444, -0.3453703703703704, -0.34074074074074073]","[0.008333333333333333, 0.13703703703703704, -0.07777777777777778]","[1, 1, 1]","[0, 0, 0]","[0, 0, 0]","[4.116179900000134, 7.549294200000077, 11.132499899999857]",0.009564369999679911,11.14197206999961,['A1'],['B3'],['C1'],['salmon'],['yellow'],['blue'],2035.7930511999998,None,8.0,2.7301396999991994,2035.7930511999998,None,2044.6929299999997,None,10.0,5.681483700000172,2040.3100326999997,None,2.0,6.081133200000295,2051.0926093000003,None,4.0,6.298363900000368,<function functionImportanceC at 0x0000028B1010B840>,<function functionImportanceA at 0x0000028B1010BAE8>,<function functionImportanceB at 0x0000028B1010B598>,,,7.0,4.2644201000002795,4.0,5.681483700000172,-0.0,3.181163000000197,<function functiondiffB at 0x0000028B0BA85950>,<function functiondiffC at 0x0000028B0BA85048>,<function functiondiffA at 0x0000028B1010B950>,,,,,2024.1948386,2061.3091182000003,None,2064.8090508,None,2057.0427322,None,1,001,2022_Jun_13_0901,2leo,2021.2.3,60.001428034001336,
3,26,Plan how to wash one round of your laundry ,Stimuli/26A1.jpg,Stimuli/26A2.jpg,Stimuli/26A3.jpg,Stimuli/26B1.jpg,Stimuli/26B2.jpg,Stimuli/26B3.jpg,Stimuli/26C1.jpg,Stimuli/26C2.jpg,Stimuli/26C3.jpg,,,,,0,31,31,26,,,,,,,,2067.5085624,None,2068.5087479999997,None,2074.5091074999996,None,"[-0.2, 0.346]","[0.399, -0.003]","[-0.203, -0.347]","[-0.377, 0.138]","[0.306, 0.255]","[0.066, -0.395]","[-0.378, -0.136]","[0.07, 0.393]","[0.304, -0.26]",,4.387489359999563,17.12023945999954,12.870587059999707,"[0.43425925925925923, -0.3333333333333333, -0.3490740740740741]","[0.016666666666666666, -0.13333333333333333, 0.10648148148148148]","[1, 1, 1]","[0, 0, 0]","[0, 0, 0]","[4.384197499999573, 12.867033499999707, 17.11692800000037]",0.0026322599997001817,17.11939945999984,['A2'],['B1'],['C1'],['yellow'],['blue'],['salmon'],2093.2414003,None,3.0,3.480537400000685,2093.2414003,None,2103.7746592,None,8.0,5.965089999999691,2096.8248128,None,0.0,6.980443600000399,2109.8078603,None,5.0,4.031795500000044,<function functionImportanceC at 0x0000028B1010BB70>,<function functionImportanceA at 0x0000028B0985C1E0>,<function functionImportanceB at 0x0000028B0985CBF8>,,,8.0,3.214339000000109,1.0,5.965089999999691,6.0,4.014183999999659,<function functiondiffA at 0x0000028B1010BEA0>,<function functiondiffB at 0x0000028B1010BE18>,<function functiondiffC at 0x0000028B1010B158>,,,,,2075.6399322,2121.057453,None,2113.791184,None,2117.8243489,None,1,001,2022_Jun_13_0901,2leo,2021.2.3,60.001428034001336,
3,32,Plan how you want to relax after a workday,Stimuli/32A1.jpg,Stimuli/32A2.jpg,Stimuli/32A3.jpg,Stimuli/32B1.jpg,Stimuli/32B2.jpg,Stimuli/32B3.jpg,Stimuli/32C1.jpg,Stimuli/32C2.jpg,Stimuli/32C3.jpg,,,,,0,32,32,32,,,,,,,,2123.2739312999997,None,2124.2739608999996,None,2130.2742015999997,None,"[0.399, -0.003]","[-0.203, -0.347]","[-0.2, 0.346]","[0.306, 0.255]","[0.066, -0.395]","[-0.377, 0.138]","[0.07, 0.393]","[0.304, -0.26]","[-0.378, -0.136]",,5.086715370001002,8.070128670000486,12.90326567000102,"[-0.17685185185185184, 0.3527777777777778, 0.08796296296296297]","[0.26851851851851855, 0.30925925925925923, 0.35555555555555557]","[1, 1, 1]","[0, 0, 0]","[0, 0, 0]","[5.074025200000506, 8.057297299999846, 12.890223800000058]",0.01204947000132961,12.902139670000906,['A3'],['B1'],['C1'],['yellow'],['blue'],['salmon'],2146.6734383999997,None,9.0,2.280537500000719,2146.6734383999997,None,2154.6900511,None,3.0,5.631558000000041,2159.2398181000003,None,1.0,5.215224699999453,2149.7900876,None,5.0,4.5647108000002845,<function functionImportanceB at 0x0000028B1010B730>,<function functionImportanceA at 0x0000028B1010B8C8>,<function functionImportanceC at 0x0000028B0985C268>,,,2.0,3.081551899999795,7.0,5.631558000000041,6.0,4.064421300000504,<function functiondiffA at 0x0000028B1010BA60>,<function functiondiffC at 0x0000028B104A9598>,<function functiondiffB at 0x0000028B1010B6A8>,,,,,2133.3174321,2168.5396926999997,None,2164.7896857,None,2172.9896145,None,1,001,2022_Jun_13_0901,2leo,2021.2.3,60.001428034001336,
3,8,Plan the interior of your living-room ,Stimuli/8A1.jpg,Stimuli/8A2.jpg,Stimuli/8A3.jpg,Stimuli/8B1.jpg,Stimuli/8B2.jpg,Stimuli/8B3.jpg,Stimuli/8C1.jpg,Stimuli/8C2.jpg,Stimuli/8C3.jpg,,,,,0,33,33,8,,,,,,,,2175.4226076,None,2176.4225887,None,2182.4226882,None,"[0.399, -0.003]","[-0.2, 0.346]","[-0.203, -0.347]","[0.306, 0.255]","[-0.377, 0.138]","[0.066, -0.395]","[0.07, 0.393]","[-0.378, -0.136]","[0.304, -0.26]",,4.345159899999089,14.095226499998716,7.412374199999249,"[-0.1814814814814815, 0.28055555555555556, -0.33425925925925926]","[-0.32314814814814813, -0.24444444444444444, 0.125]","[1, 1, 1]","[0, 0, 0]","[0, 0, 0]","[4.335308899999291, 7.402093099999547, 14.085252099999707]",0.009196599999086175,14.09416819999933,['A3'],['B2'],['C3'],['yellow'],['salmon'],['blue'],2201.8553596999996,None,8.0,2.4634282999995776,2201.8553596999996,None,2210.6719970999998,None,9.0,3.348261299999649,2215.9218361,None,5.0,3.898688100000072,2206.1386919,None,4.0,6.230669300000045,<function functionImportanceB at 0x0000028B0BA85EA0>,<function functionImportanceA at 0x0000028B0BA856A8>,<function functionImportanceC at 0x0000028B1010BBF8>,,,7.0,4.298110599999745,2.0,3.348261299999649,0.0,3.6643262999996296,<function functiondiffC at 0x0000028B104A90D0>,<function functiondiffA at 0x0000028B1010B268>,<function functiondiffB at 0x0000028B1010B0D0>,,,,,2187.3014111999996,2218.4550360999997,None,2221.5050085,None,2225.7382691,None,1,001,2022_Jun_13_0901,2leo,2021.2.3,60.001428034001336,
3,35,Plan how you want to do your grocery shopping ,Stimuli/35A1.jpg,Stimuli/35A2.jpg,Stimuli/35A3.jpg,Stimuli/35B1.jpg,Stimuli/35B2.jpg,Stimuli/35B3.jpg,Stimuli/35C1.jpg,Stimuli/35C2.jpg,Stimuli/35C3.jpg,,,,,0,34,34,35,,,,,,,,2229.0045218,None,2230.0044864999995,None,2236.0046765,None,"[0.304, -0.26]","[0.07, 0.393]","[-0.378, -0.136]","[0.066, -0.395]","[0.306, 0.255]","[-0.377, 0.138]","[-0.203, -0.347]","[0.399, -0.003]","[-0.2, 0.346]",,8.782268750001094,16.947096050000255,5.064237950000461,"[-0.18425925925925926, -0.32592592592592595, 0.31203703703703706]","[0.39537037037037037, -0.16296296296296298, 0.23796296296296296]","[1, 1, 1]","[0, 0, 0]","[0, 0, 0]","[5.046755700000176, 8.76426739999988, 16.929999800000587]",0.016347350000614824,16.94604045000051,['A3'],['B2'],['C3'],['yellow'],['blue'],['salmon'],2254.6538275999997,None,6.0,3.330525999999736,2254.6538275999997,None,2258.070598,None,9.0,4.214363699999922,2265.9538148999995,None,5.0,4.665057600000182,2262.4038879000004,None,7.0,3.5981685999995534,<function functionImportanceA at 0x0000028B0BA85840>,<function functionImportanceB at 0x0000028B104A9950>,<function functionImportanceC at 0x0000028B104A96A8>,,,9.0,2.7644868999996106,6.0,4.214363699999922,3.0,4.814157000000705,<function functiondiffA at 0x0000028B104A9510>,<function functiondiffC at 0x0000028B104A9D08>,<function functiondiffB at 0x0000028B104A99D8>,,,,,2237.2405524,2275.3869577,None,2270.5536575,None,2279.1202246,None,1,001,2022_Jun_13_0901,2leo,2021.2.3,60.001428034001336,
3,16,Plan a delicious cake for the birthday of a friend,Stimuli/16A1.jpg,Stimuli/16A2.jpg,Stimuli/16A3.jpg,Stimuli/16B1.jpg,Stimuli/16B2.jpg,Stimuli/16B3.jpg,Stimuli/16C1.jpg,Stimuli/16C2.jpg,Stimuli/16C3.jpg,,,,,0,35,35,16,,,,,,,,2281.3864982,None,2282.3865905,None,2288.3866826999997,None,"[0.07, 0.393]","[-0.378, -0.136]","[0.304, -0.26]","[0.399, -0.003]","[-0.2, 0.346]","[-0.203, -0.347]","[0.306, 0.255]","[-0.377, 0.138]","[0.066, -0.395]",,9.639966750000895,4.656486350000705,13.523282050000489,"[-0.23425925925925925, 0.041666666666666664, 0.1111111111111111]","[-0.3851851851851852, 0.3972222222222222, -0.4148148148148148]","[1, 1, 1]","[0, 0, 0]","[0, 0, 0]","[4.642133999999714, 9.626062600000296, 13.508667099999911]",0.01350075000027573,13.521974950001095,['A1'],['B3'],['C3'],['blue'],['yellow'],['salmon'],2303.7859325000004,None,6.0,3.2972241999996186,2303.7859325000004,None,2316.6024759999996,None,10.0,5.2984237999999095,2311.7693050000003,None,3.0,4.881782100000237,2307.3693904999996,None,10.0,4.531275199999982,<function functionImportanceB at 0x0000028B104A9B70>,<function functionImportanceC at 0x0000028B104A9840>,<function functionImportanceA at 0x0000028B104A98C8>,,,4.0,2.247991600000205,6.0,5.2984237999999095,9.0,5.931212399999822,<function functiondiffC at 0x0000028B104A9EA0>,<function functiondiffB at 0x0000028B104A9E18>,<function functiondiffA at 0x0000028B104A9158>,,,,,2289.8073763999996,2321.9022817,None,2327.868892,None,2325.6355638,None,1,001,2022_Jun_13_0901,2leo,2021.2.3,60.001428034001336,
3,19,Plan how you want your garden to look like,Stimuli/19A1.jpg,Stimuli/19A2.jpg,Stimuli/19A3.jpg,Stimuli/19B1.jpg,Stimuli/19B2.jpg,Stimuli/19B3.jpg,Stimuli/19C1.jpg,Stimuli/19C2.jpg,Stimuli/19C3.jpg,,,,,0,36,36,19,,,,,,,,2333.3182523,None,2334.3201311,None,2340.3353064999997,None,"[0.399, -0.003]","[-0.2, 0.346]","[-0.203, -0.347]","[0.07, 0.393]","[-0.378, -0.136]","[0.304, -0.26]","[0.306, 0.255]","[-0.377, 0.138]","[0.066, -0.395]",,3.2142228199991223,10.614345519999006,7.514689119999275,"[0.4222222222222222, 0.10092592592592593, -0.3574074074074074]","[-0.046296296296296294, -0.34074074074074073, -0.14444444444444443]","[1, 1, 1]","[0, 0, 0]","[0, 0, 0]","[3.2097568999997748, 7.50953920000029, 10.609495900000184]",0.004031219998978486,10.613389319999442,['A1'],['B2'],['C3'],['salmon'],['yellow'],['blue'],2355.0512416999995,None,10.0,1.5798939999995127,2355.0512416999995,None,2363.3176941999996,None,10.0,4.031556999999339,2358.068457,None,7.0,6.581266299999697,2368.4677214999997,None,10.0,3.9484801999997217,<function functionImportanceC at 0x0000028B104A9488>,<function functionImportanceA at 0x0000028B104A9378>,<function functionImportanceB at 0x0000028B104A9BF8>,,,0.0,2.7647522000006575,6.0,4.031556999999339,3.0,3.1807230000003983,<function functiondiffA at 0x0000028B104A9620>,<function functiondiffB at 0x0000028B1010BF28>,<function functiondiffC at 0x0000028B1010B510>,,,,,2343.978071,2377.6341834,None,2371.3010238,None,2374.7191949000003,None,1,001,2022_Jun_13_0901,2leo,2021.2.3,60.001428034001336,
3,9,Plan a picnic with friends,Stimuli/9A1.jpg,Stimuli/9A2.jpg,Stimuli/9A3.jpg,Stimuli/9B1.jpg,Stimuli/9B2.jpg,Stimuli/9B3.jpg,Stimuli/9C1.jpg,Stimuli/9C2.jpg,Stimuli/9C3.jpg,,,,,0,37,37,9,,,,,,,,2380.733691,None,2381.7339356999996,None,2387.7342366,None,"[-0.378, -0.136]","[0.07, 0.393]","[0.304, -0.26]","[-0.377, 0.138]","[0.306, 0.255]","[0.066, -0.395]","[-0.2, 0.346]","[0.399, -0.003]","[-0.203, -0.347]",,9.332380509999894,5.13423561000036,13.616273810000166,"[0.32407407407407407, -0.325, -0.262037037037037]","[0.18796296296296297, -0.11388888888888889, 0.31666666666666665]","[1, 1, 1]","[0, 0, 0]","[0, 0, 0]","[5.119291900000462, 9.317809099999977, 13.60119560000021]",0.014173610000398185,13.6147978099998,['A1'],['B2'],['C1'],['blue'],['salmon'],['yellow'],2407.2331344,None,8.0,2.4297676000005595,2407.2331344,None,2411.2194684,None,9.0,5.797714799999994,2417.0997921000003,None,6.0,7.3477281999994375,2424.2497270999997,None,5.0,4.915146299999833,<function functionImportanceA at 0x0000028B104A9A60>,<function functionImportanceC at 0x0000028B10933598>,<function functionImportanceB at 0x0000028B109330D0>,,,2.0,3.6648222000003443,7.0,5.797714799999994,0.0,3.964696400000321,<function functiondiffC at 0x0000028B104A9D90>,<function functiondiffB at 0x0000028B104A9AE8>,<function functiondiffA at 0x0000028B1010BD90>,,,,,2393.1691121,2428.3014602999997,None,2436.5160002,None,2432.7491987999997,None,1,001,2022_Jun_13_0901,2leo,2021.2.3,60.001428034001336,
3,6,Plan your wedding,Stimuli/6A1.jpg,Stimuli/6A2.jpg,Stimuli/6A3.jpg,Stimuli/6B1.jpg,Stimuli/6B2.jpg,Stimuli/6B3.jpg,Stimuli/6C1.jpg,Stimuli/6C2.jpg,Stimuli/6C3.jpg,,,,,0,38,38,6,,,,,,,,2439.5321097,None,2440.5324251999996,None,2446.5324840999997,None,"[-0.377, 0.138]","[0.306, 0.255]","[0.066, -0.395]","[-0.378, -0.136]","[0.07, 0.393]","[0.304, -0.26]","[-0.2, 0.346]","[0.399, -0.003]","[-0.203, -0.347]",,8.5361278700002,14.769509669999934,17.719509770000514,"[0.22870370370370371, -0.3148148148148148, -0.24074074074074073]","[0.19166666666666668, -0.14907407407407408, 0.3314814814814815]","[1, 1, 1]","[0, 0, 0]","[0, 0, 0]","[8.52899989999969, 14.762225699999362, 17.71189239999967]",0.006620969999858062,17.718509670000458,['A2'],['B1'],['C1'],['blue'],['salmon'],['yellow'],2469.9482875,None,6.0,3.4136591000005865,2469.9482875,None,2480.7812218000004,None,10.0,5.165116299999681,2474.6984744999995,None,10.0,6.1311501000000135,2486.448584,None,5.0,5.731975500000772,<function functionImportanceC at 0x0000028B109331E0>,<function functionImportanceA at 0x0000028B10933488>,<function functionImportanceB at 0x0000028B10933378>,,,8.0,6.097849499999938,0.0,5.165116299999681,6.0,4.598105500000202,<function functiondiffC at 0x0000028B10933BF8>,<function functiondiffA at 0x0000028B10933D08>,<function functiondiffB at 0x0000028B10933E18>,,,,,2451.7710709999997,2490.8812151999996,None,2497.2308762,None,2501.9309111999996,None,1,001,2022_Jun_13_0901,2leo,2021.2.3,60.001428034001336,
3,21,Plan your sandwich for lunch,Stimuli/21A1.jpg,Stimuli/21A2.jpg,Stimuli/21A3.jpg,Stimuli/21B1.jpg,Stimuli/21B2.jpg,Stimuli/21B3.jpg,Stimuli/21C1.jpg,Stimuli/21C2.jpg,Stimuli/21C3.jpg,,,,,0,39,39,21,,,,,,,,2507.1469957000004,None,2508.1474098000003,None,2514.1472707999997,None,"[-0.377, 0.138]","[0.066, -0.395]","[0.306, 0.255]","[-0.2, 0.346]","[-0.203, -0.347]","[0.399, -0.003]","[-0.378, -0.136]","[0.304, -0.26]","[0.07, 0.393]",,15.009424500000932,3.8929845000011483,9.759838200001468,"[-0.17962962962962964, -0.31666666666666665, 0.09814814814814815]","[-0.2611111111111111, -0.12129629629629629, -0.4009259259259259]","[1, 1, 1]","[0, 0, 0]","[0, 0, 0]","[3.8783739999998943, 9.745059699999729, 14.99507470000026]",0.013854500000888947,15.008627100000922,['A2'],['B2'],['C1'],['yellow'],['salmon'],['blue'],2530.7800189000004,None,10.0,1.7471090999997614,2530.7800189000004,None,2538.4966191999997,None,6.0,4.1320694999994885,2532.6301666000004,None,10.0,5.8480007999996815,2542.6464457999996,None,2.0,4.398411000000124,<function functionImportanceC at 0x0000028B109332F0>,<function functionImportanceA at 0x0000028B10933158>,<function functionImportanceB at 0x0000028B109337B8>,,,0.0,3.5143267000003107,4.0,4.1320694999994885,7.0,3.5479323999998087,<function functiondiffB at 0x0000028B10933730>,<function functiondiffC at 0x0000028B10933510>,<function functiondiffA at 0x0000028B10933950>,,,,,2515.2989085000004,2550.5130752,None,2553.6459947,None,2546.9962462,None,1,001,2022_Jun_13_0901,2leo,2021.2.3,60.001428034001336,
3,5,Plan a birthday party for your younger self when you turn eight,Stimuli/5A1.jpg,Stimuli/5A2.jpg,Stimuli/5A3.jpg,Stimuli/5B1.jpg,Stimuli/5B2.jpg,Stimuli/5B3.jpg,Stimuli/5C1.jpg,Stimuli/5C2.jpg,Stimuli/5C3.jpg,,,,,0,40,40,5,,,,,,,,2556.7290594,None,2557.7292942999998,None,2563.7294260000003,None,"[0.066, -0.395]","[0.306, 0.255]","[-0.377, 0.138]","[-0.203, -0.347]","[0.399, -0.003]","[-0.2, 0.346]","[0.304, -0.26]","[0.07, 0.393]","[-0.378, -0.136]",,4.228036479999901,15.061463979999644,9.561914279999655,"[0.06018518518518518, -0.375, -0.14537037037037037]","[-0.36666666666666664, -0.1638888888888889, 0.29444444444444445]","[1, 1, 1]","[0, 0, 0]","[0, 0, 0]","[4.222131399999853, 9.555297800000517, 15.055155799999739]",0.00548088000050484,15.060471580000012,['A1'],['B3'],['C3'],['blue'],['yellow'],['salmon'],2585.0451629000004,None,10.0,3.0637477999998737,2585.0451629000004,None,2600.9447752,None,7.0,6.381873000000269,2588.7785522,None,8.0,5.964559000000008,2595.6285347,None,3.0,4.214759100000265,<function functionImportanceC at 0x0000028B109338C8>,<function functionImportanceB at 0x0000028B10933840>,<function functionImportanceA at 0x0000028B1010B048>,,,1.0,4.931248999999298,5.0,6.381873000000269,2.0,4.830935599999975,<function functiondiffA at 0x0000028B10933C80>,<function functiondiffC at 0x0000028B10933F28>,<function functiondiffB at 0x0000028B10933AE8>,,,,,2569.5261047999998,2609.7445958000003,None,2605.5282289,None,2612.9946579,None,1,001,2022_Jun_13_0901,2leo,2021.2.3,60.001428034001336,
3,23,Plan a city trip,Stimuli/23A1.jpg,Stimuli/23A2.jpg,Stimuli/23A3.jpg,Stimuli/23B1.jpg,Stimuli/23B2.jpg,Stimuli/23B3.jpg,Stimuli/23C1.jpg,Stimuli/23C2.jpg,Stimuli/23C3.jpg,,,,,0,41,41,23,,,,,,,,2617.0941127,None,2618.0960799,None,2624.1112203999996,None,"[-0.2, 0.346]","[0.399, -0.003]","[-0.203, -0.347]","[-0.378, -0.136]","[0.07, 0.393]","[0.304, -0.26]","[-0.377, 0.138]","[0.306, 0.255]","[0.066, -0.395]",,7.418140740001036,12.201812740000605,3.6354368400006933,"[-0.39814814814814814, -0.21388888888888888, 0.2611111111111111]","[0.17592592592592593, 0.2824074074074074, -0.20092592592592592]","[1, 1, 1]","[0, 0, 0]","[0, 0, 0]","[3.6242441000003964, 7.40751580000051, 12.190750800000387]",0.010201140000390296,12.20078274000025,['A1'],['B3'],['C1'],['yellow'],['salmon'],['blue'],2637.9770520999996,None,9.0,2.5637314999994487,2637.9770520999996,None,2647.0938294000002,None,1.0,5.281759899999997,2640.6771569999996,None,10.0,3.097592799999802,2643.7603679,None,5.0,3.281492299999627,<function functionImportanceC at 0x0000028B10933268>,<function functionImportanceB at 0x0000028B10933B70>,<function functionImportanceA at 0x0000028B109339D8>,,,3.0,3.76496170000064,0.0,5.281759899999997,6.0,6.280768100000387,<function functiondiffA at 0x0000028B10933048>,<function functiondiffB at 0x0000028B104A9400>,<function functiondiffC at 0x0000028B104A9268>,,,,,2625.3017502999996,2662.3766558,None,2652.2937948000003,None,2658.5932712999997,None,1,001,2022_Jun_13_0901,2leo,2021.2.3,60.001428034001336,
3,2,Plan which ingredients you want to use for cooking dinner today,Stimuli/2A1.jpg,Stimuli/2A2.jpg,Stimuli/2A3.jpg,Stimuli/2B1.jpg,Stimuli/2B2.jpg,Stimuli/2B3.jpg,Stimuli/2C1.jpg,Stimuli/2C2.jpg,Stimuli/2C3.jpg,,,,,0,42,42,2,,,,,,,,2664.2262060999997,None,2665.2264572,None,2671.2265583000003,None,"[0.306, 0.255]","[-0.377, 0.138]","[0.066, -0.395]","[0.07, 0.393]","[-0.378, -0.136]","[0.304, -0.26]","[0.399, -0.003]","[-0.2, 0.346]","[-0.203, -0.347]",,2.7029800699992848,9.069403169999532,6.819768569999724,"[-0.36666666666666664, -0.15555555555555556, -0.3194444444444444]","[0.08981481481481482, -0.33240740740740743, -0.1037037037037037]","[1, 1, 1]","[0, 0, 0]","[0, 0, 0]","[2.6913111999992907, 6.8077321999999185, 9.05764949999957]",0.010911169999417325,9.068540769999345,['A2'],['B2'],['C3'],['yellow'],['salmon'],['blue'],2686.8258508000004,None,9.0,2.346742099999574,2686.8258508000004,None,2690.3120203000003,None,10.0,4.747717999999622,2694.5946035,None,7.0,4.281665800000155,2701.5590705,None,5.0,7.398563599999761,<function functionImportanceA at 0x0000028B10933A60>,<function functionImportanceC at 0x0000028B10DA46A8>,<function functionImportanceB at 0x0000028B10DA47B8>,,,0.0,4.014573499999642,4.0,4.747717999999622,6.0,2.7147008000001733,<function functiondiffC at 0x0000028B10DA4510>,<function functiondiffB at 0x0000028B109336A8>,<function functiondiffA at 0x0000028B10933EA0>,,,,,2677.3029639,2705.8606600999997,None,2713.8920133999995,None,2710.345339,None,1,001,2022_Jun_13_0901,2leo,2021.2.3,60.001428034001336,
3,1,Plan how to study for an exam,Stimuli/1A1.jpg,Stimuli/1A2.jpg,Stimuli/1A3.jpg,Stimuli/1B1.jpg,Stimuli/1B2.jpg,Stimuli/1B3.jpg,Stimuli/1C1.jpg,Stimuli/1C2.jpg,Stimuli/1C3.jpg,,,,,0,43,43,1,,,,,,,,2715.8081194,None,2716.8101941,None,2722.8251925,None,"[0.066, -0.395]","[-0.377, 0.138]","[0.306, 0.255]","[-0.203, -0.347]","[-0.2, 0.346]","[0.399, -0.003]","[0.304, -0.26]","[-0.378, -0.136]","[0.07, 0.393]",,5.770200529999784,2.57059333000052,7.9372258299999885,"[0.4027777777777778, -0.3888888888888889, 0.31574074074074077]","[-0.016666666666666666, 0.09351851851851851, -0.3074074074074074]","[1, 1, 1]","[0, 0, 0]","[0, 0, 0]","[2.5589483000003383, 5.758964900000137, 7.9255339999999705]",0.010745630000201345,7.936063330000252,['A2'],['B3'],['C1'],['salmon'],['blue'],['yellow'],2732.3746843000004,None,10.0,1.8800395999996908,2732.3746843000004,None,2737.8245946,None,7.0,4.531693299999461,2734.3079280999996,None,10.0,3.4476833999997325,2742.4245147999995,None,10.0,2.348419300000387,<function functionImportanceC at 0x0000028B10DA4730>,<function functionImportanceA at 0x0000028B10DA4400>,<function functionImportanceB at 0x0000028B10DA42F0>,,,0.0,3.0810749000002033,0.0,4.531693299999461,4.0,3.0980217999995148,<function functiondiffC at 0x0000028B10DA4D08>,<function functiondiffB at 0x0000028B10DA4950>,<function functiondiffA at 0x0000028B10DA4B70>,,,,,2723.9658083,2744.6579033000003,None,2751.0411560999996,None,2747.9244991,None,1,001,2022_Jun_13_0901,2leo,2021.2.3,60.001428034001336,
3,17,Plan a day in Barcelona with a friend who is new to the city,Stimuli/17A1.jpg,Stimuli/17A2.jpg,Stimuli/17A3.jpg,Stimuli/17B1.jpg,Stimuli/17B2.jpg,Stimuli/17B3.jpg,Stimuli/17C1.jpg,Stimuli/17C2.jpg,Stimuli/17C3.jpg,,,,,0,44,44,17,,,,,,,,2753.6589982,None,2754.6758388000003,None,2760.6741115,None,"[-0.377, 0.138]","[0.066, -0.395]","[0.306, 0.255]","[-0.378, -0.136]","[0.304, -0.26]","[0.07, 0.393]","[-0.2, 0.346]","[-0.203, -0.347]","[0.399, -0.003]",,3.49185966999994,6.227062269999806,8.392339070000162,"[0.35555555555555557, 0.36018518518518516, -0.19814814814814816]","[0.23333333333333334, -0.23703703703703705, -0.3194444444444444]","[1, 1, 1]","[0, 0, 0]","[0, 0, 0]","[3.477725400000054, 6.21281369999997, 8.377789099999973]",0.013495569999577128,8.39120137000009,['A3'],['B2'],['C2'],['yellow'],['blue'],['salmon'],2770.7070640999996,None,10.0,1.797013600000355,2770.7070640999996,None,2777.0237561,None,8.0,4.381271100000049,2772.5737651000004,None,5.0,4.397819499999969,2781.3901148,None,10.0,2.9820365999994465,<function functionImportanceC at 0x0000028B10DA4268>,<function functionImportanceA at 0x0000028B10DA41E0>,<function functionImportanceB at 0x0000028B10DA49D8>,,,0.0,2.4146361999992223,3.0,4.381271100000049,0.0,3.631078499999603,<function functiondiffC at 0x0000028B10DA48C8>,<function functiondiffA at 0x0000028B10933400>,<function functiondiffB at 0x0000028B10933D90>,,,,,2761.8425408999997,2784.3567221,None,2787.9733463999996,None,2791.6233932,None,1,001,2022_Jun_13_0901,2leo,2021.2.3,60.001428034001336,
