Condition,N_Scenario,written_scenario,ImageA1,ImageA2,ImageA3,ImageB1,ImageB2,ImageB3,ImageC1,ImageC2,ImageC3,trials_2.thisRepN,trials_2.thisTrialN,trials_2.thisN,trials_2.thisIndex,trial.thisRepN,trial.thisTrialN,trial.thisN,trial.thisIndex,button_2.started,button_2.stopped,button_2.numClicks,button_2.timesOn,button_2.timesOff,text.started,text.stopped,fixationcross1_started,fixationcross1_stopped,Scenario_started,Scenario_stopped,fixationcross2_started,fixationcross2_stopped,A1pos,A2pos,A3pos,B1pos,B2pos,B3pos,C1pos,C2pos,C3pos,﻿Imagesdecision_started,decisiontimeA,decisiontimeB,decisiontimeC,mouse_x,mouse_y,mouse_leftButton,mouse_midButton,mouse_rightButton,mouse_time,mouse_started,mouse_stopped,clicked_optionA,clicked_optionB,clicked_optionC,colour_category_A,colour_category_B,colour_category_C,question_confidence_started,question_confidence_stopped,slider_confidence_response,slider_confidence_rt,slider_confidence_started,slider_confidence_stopped,question_valueA_started,question_valueA_stopped,slider_valueA_response,slider_valueA_rt,question_valueB_started,question_valueB_stopped,slider_valueB_response,slider_valueB_rt,question_valueC_started,question_valueC_stopped,slider_valueC_response,slider_valueC_rt,Importance_First,Importance_Second,Importance_Third,question_diff_started,question_diff_stopped,slider_diffC_response,slider_diffC_rt,slider_diffB_response,slider_diffB_rt,slider_diffA_response,slider_diffA_rt,diff_First,diff_Second,diff_Third,button_3_started,button_3_stopped,text_2_started,text_2_stopped,Imagesdecision_started,question_diffB_started,question_diffB_stopped,question_diffC_started,question_diffC_stopped,question_diffA_started,question_diffA_stopped,participant,session,date,expName,psychopyVersion,frameRate,
3,2,Plan a party to celebrate your birthday,Stimuli/2A1t.jpg,Stimuli/2A2t.jpg,Stimuli/2A3t.jpg,Stimuli/2B1t.jpg,Stimuli/2B2t.jpg,Stimuli/2B3t.jpg,Stimuli/2C1t.jpg,Stimuli/2C2t.jpg,Stimuli/2C3t.jpg,0,0,0,0,,,,,30.913895599998796,None,1,[3.436295899999095],[3.4362995000010415],30.913895599998796,None,79.87159140000222,None,80.88139810000212,None,86.8813627999989,None,"[0.304, -0.26]","[-0.378, -0.136]","[0.07, 0.393]","[-0.203, -0.347]","[-0.2, 0.346]","[0.399, -0.003]","[0.066, -0.395]","[-0.377, 0.138]","[0.306, 0.255]",90.8825868999993,23.34083092000583,33.19054632000916,8.541408420009247,"[0.06666666666666667, -0.4148148148148148, 0.4351851851851852]","[-0.4, -0.1111111111111111, -0.016666666666666666]","[1, 1, 1]","[0, 0, 0]","[0, 0, 0]","[8.52968790000159, 23.32954450000034, 33.17890619999889]",0.010761520006781211,33.18955222000659,['A2'],['B3'],['C1'],['yellow'],['blue'],['salmon'],124.52993409999908,None,10.0,4.613631500000338,124.52993409999908,None,130.49678689999928,None,9.0,15.030782300000283,145.81283729999996,None,4.0,7.4985711999979685,151.79609490000075,None,9.0,3.715179499999067,<function functionImportanceAt at 0x0000022B28891E18>,<function functionImportanceBt at 0x0000022B37EA1D08>,<function functionImportanceCt at 0x0000022B37EA1E18>,168.49547650000022,None,2.0,5.713892200001283,2.0,6.8150645999994595,2.0,15.030782300000283,<function functiondiffCt at 0x0000022B38BC31E0>,<function functiondiffBt at 0x0000022B38BC3D08>,<function functiondiffAt at 0x0000022B38BC3C80>,,,,,,,,,,,,13,001,2022_Jul_12_1508,2leo,2021.2.3,59.99070144162057,
3,3,Plan one week of vacation,Stimuli/3A1t.jpg,Stimuli/3A2t.jpg,Stimuli/3A3t.jpg,Stimuli/3B1t.jpg,Stimuli/3B2t.jpg,Stimuli/3B3t.jpg,Stimuli/3C1t.jpg,Stimuli/3C2t.jpg,Stimuli/3C3t.jpg,0,1,1,1,,,,,,,,,,,,173.09568579999905,None,174.09539529999893,None,180.09547210000164,None,"[0.066, -0.395]","[0.306, 0.255]","[-0.377, 0.138]","[-0.203, -0.347]","[0.399, -0.003]","[-0.2, 0.346]","[0.304, -0.26]","[0.07, 0.393]","[-0.378, -0.136]",186.21944280000025,18.556289260013727,21.8402786600127,28.55616646001363,"[-0.3638888888888889, 0.4203703703703704, 0.32037037037037036]","[0.1537037037037037, -0.019444444444444445, -0.28425925925925927]","[1, 1, 1]","[0, 0, 0]","[0, 0, 0]","[18.542988199998945, 21.826761699998315, 28.542512699998042]",0.012660760014114203,28.555058060013835,['A3'],['B2'],['C1'],['blue'],['salmon'],['yellow'],215.22764570000072,None,9.0,3.447724900001049,215.22764570000072,None,243.46013820000007,None,8.0,12.014899800000421,220.46237309999924,None,8.0,11.847376800000347,232.0441549999996,None,7.0,10.915192200001911,<function functionImportanceBt at 0x0000022B37EA1BF8>,<function functionImportanceCt at 0x0000022B257231E0>,<function functionImportanceAt at 0x0000022B2C032268>,261.31006590000106,None,4.0,4.014042099999642,6.0,3.563746899999387,6.0,12.014899800000421,<function functiondiffAt at 0x0000022B38BC3BF8>,<function functiondiffCt at 0x0000022B38BC36A8>,<function functiondiffBt at 0x0000022B38BC3730>,,,,,,,,,,,,13,001,2022_Jul_12_1508,2leo,2021.2.3,59.99070144162057,
3,3,Plan a movie night with a friend,Stimuli/3A1.jpg,Stimuli/3A2.jpg,Stimuli/3A3.jpg,Stimuli/3B1.jpg,Stimuli/3B2.jpg,Stimuli/3B3.jpg,Stimuli/3C1.jpg,Stimuli/3C2.jpg,Stimuli/3C3.jpg,,,,,0,0,0,3,,,,,,,,320.43585520000124,None,321.42503299999953,None,327.42498590000105,None,"[-0.378, -0.136]","[0.304, -0.26]","[0.07, 0.393]","[-0.377, 0.138]","[0.066, -0.395]","[0.306, 0.255]","[-0.2, 0.346]","[-0.203, -0.347]","[0.399, -0.003]",,20.089992790002725,9.940601890004473,13.024078590002318,"[0.07222222222222222, -0.20092592592592592, 0.3]","[-0.39166666666666666, -0.3490740740740741, -0.2574074074074074]","[1, 1, 1]","[0, 0, 0]","[0, 0, 0]","[9.930814600000303, 13.014091199998802, 20.08050000000003]",0.008988690002297517,20.089362590002565,['A2'],['B2'],['C2'],['blue'],['yellow'],['salmon'],351.6908126999988,None,9.0,2.9628568999978597,351.6908126999988,None,367.62377910000214,None,8.0,5.014778799999476,355.5099587000004,None,8.0,12.830784600002517,374.4108297999992,None,8.0,4.331352299999708,<function functionImportanceB at 0x0000022B37EA19D8>,<function functionImportanceA at 0x0000022B38BC3F28>,<function functionImportanceC at 0x0000022B398D6048>,,,0.0,5.014778799999476,2.0,5.4638092999994115,2.0,3.514303399999335,<function functiondiffB at 0x0000022B38BC3A60>,<function functiondiffC at 0x0000022B35182F28>,<function functiondiffA at 0x0000022B37D5FEA0>,263.9931651000006,None,263.9931651000006,None,331.14495180000085,377.32364919999964,None,382.7899834000018,None,385.8232628000005,None,13,001,2022_Jul_12_1508,2leo,2021.2.3,59.99070144162057,
3,28,Plan a one-week camping trip in Spain,Stimuli/28A1.jpg,Stimuli/28A2.jpg,Stimuli/28A3.jpg,Stimuli/28B1.jpg,Stimuli/28B2.jpg,Stimuli/28B3.jpg,Stimuli/28C1.jpg,Stimuli/28C2.jpg,Stimuli/28C3.jpg,,,,,0,1,1,28,,,,,,,,388.85655899999983,None,389.85658160000094,None,395.856627000001,None,"[0.399, -0.003]","[-0.203, -0.347]","[-0.2, 0.346]","[0.306, 0.255]","[0.066, -0.395]","[-0.377, 0.138]","[0.07, 0.393]","[0.304, -0.26]","[-0.378, -0.136]",,20.687775810001767,28.588014510001813,22.05487171000277,"[-0.21388888888888888, 0.05462962962962963, 0.037037037037037035]","[0.35185185185185186, 0.3972222222222222, -0.4027777777777778]","[1, 1, 1]","[0, 0, 0]","[0, 0, 0]","[20.675813000001654, 22.042591800000082, 28.57591130000219]",0.011339510001562303,28.586801610003022,['A3'],['B2'],['C1'],['yellow'],['blue'],['salmon'],426.0553218999994,None,9.0,2.86343560000023,426.0553218999994,None,428.988563400002,None,8.0,6.697855099999288,439.2049693000008,None,6.0,4.081754400001955,435.73982199999955,None,10.0,3.4491582000009657,<function functionImportanceA at 0x0000022B38BC3840>,<function functionImportanceC at 0x0000022B398D6378>,<function functionImportanceB at 0x0000022B38BC3510>,,,2.0,6.697855099999288,7.0,10.381067400001484,3.0,3.2481191999977455,<function functiondiffB at 0x0000022B398D6A60>,<function functiondiffC at 0x0000022B398D6AE8>,<function functiondiffA at 0x0000022B398D69D8>,,,,,396.9950136000007,443.2385557000016,None,453.6381337999992,None,458.60490760000175,None,13,001,2022_Jul_12_1508,2leo,2021.2.3,59.99070144162057,
3,4,Plan a game night at your place,Stimuli/4A1.jpg,Stimuli/4A2.jpg,Stimuli/4A3.jpg,Stimuli/4B1.jpg,Stimuli/4B2.jpg,Stimuli/4B3.jpg,Stimuli/4C1.jpg,Stimuli/4C2.jpg,Stimuli/4C3.jpg,,,,,0,2,2,4,,,,,,,,461.3711919999987,None,462.37152210000204,None,468.37118850000115,None,"[-0.203, -0.347]","[-0.2, 0.346]","[0.399, -0.003]","[0.066, -0.395]","[-0.377, 0.138]","[0.306, 0.255]","[0.304, -0.26]","[-0.378, -0.136]","[0.07, 0.393]",,14.650751560006029,16.91787566000494,12.951536360003956,"[0.3175925925925926, 0.3768518518518518, 0.34074074074074073]","[-0.26666666666666666, 0.025, 0.23981481481481481]","[1, 1, 1]","[0, 0, 0]","[0, 0, 0]","[12.937613699999929, 14.637172699996881, 16.90389199999845]",0.012953460005519446,16.916786060002778,['A3'],['B3'],['C1'],['yellow'],['blue'],['salmon'],489.1705253,None,9.0,2.3299598999983573,489.1705253,None,506.0198762,None,7.0,5.414618599999812,491.5370545000005,None,7.0,6.213956999999937,499.12151989999984,None,7.0,7.198352200000954,<function functionImportanceB at 0x0000022B398D6F28>,<function functionImportanceC at 0x0000022B398D6E18>,<function functionImportanceA at 0x0000022B398D6950>,,,1.0,5.414618599999812,1.0,2.248135900001216,1.0,3.2812181000008422,<function functiondiffA at 0x0000022B398D6B70>,<function functiondiffB at 0x0000022B398D67B8>,<function functiondiffC at 0x0000022B398D60D0>,,,,,471.80207169999994,513.7199688000001,None,516.3533005999998,None,510.77008719999867,None,13,001,2022_Jul_12_1508,2leo,2021.2.3,59.99070144162057,
3,43,Plan your dream house,Stimuli/43A1.jpg,Stimuli/43A2.jpg,Stimuli/43A3.jpg,Stimuli/43B1.jpg,Stimuli/43B2.jpg,Stimuli/43B3.jpg,Stimuli/43C1.jpg,Stimuli/43C2.jpg,Stimuli/43C3.jpg,,,,,0,3,3,43,,,,,,,,517.9031912999999,None,518.9030531999997,None,524.9031553000023,None,"[-0.203, -0.347]","[-0.2, 0.346]","[0.399, -0.003]","[0.304, -0.26]","[-0.378, -0.136]","[0.07, 0.393]","[0.066, -0.395]","[-0.377, 0.138]","[0.306, 0.255]",,26.804034500000853,30.537760100003652,29.071231000001717,"[-0.16944444444444445, 0.31666666666666665, -0.35185185185185186]","[-0.3712962962962963, 0.27314814814814814, -0.14444444444444443]","[1, 1, 1]","[0, 0, 0]","[0, 0, 0]","[26.792108099998586, 29.058638799997425, 30.525466799997957]",0.01145370000085677,30.536683400001493,['A1'],['B2'],['C3'],['blue'],['salmon'],['yellow'],557.0687222000015,None,8.0,5.813402799998585,557.0687222000015,None,567.1851466000007,None,6.0,3.348414699998102,562.9353828999992,None,8.0,4.164762699998391,570.5184152000002,None,8.0,2.3651199999985693,<function functionImportanceB at 0x0000022B398D6D90>,<function functionImportanceA at 0x0000022B398D6D08>,<function functionImportanceC at 0x0000022B398D6BF8>,,,5.0,3.348414699998102,1.0,3.4142654000024777,4.0,3.1980880000010075,<function functiondiffC at 0x0000022B3512D9D8>,<function functiondiffA at 0x0000022B398D6840>,<function functiondiffB at 0x0000022B38BC3E18>,,,,,526.0573995000013,582.2015339999998,None,572.8517441000004,None,578.9851225999992,None,13,001,2022_Jul_12_1508,2leo,2021.2.3,59.99070144162057,
3,38,Plan how you want to go for a run,Stimuli/38A1.jpg,Stimuli/38A2.jpg,Stimuli/38A3.jpg,Stimuli/38B1.jpg,Stimuli/38B2.jpg,Stimuli/38B3.jpg,Stimuli/38C1.jpg,Stimuli/38C2.jpg,Stimuli/38C3.jpg,,,,,0,4,4,38,,,,,,,,585.1347447000007,None,586.1349303999996,None,592.1346761999994,None,"[0.399, -0.003]","[-0.203, -0.347]","[-0.2, 0.346]","[0.306, 0.255]","[0.066, -0.395]","[-0.377, 0.138]","[0.07, 0.393]","[0.304, -0.26]","[-0.378, -0.136]",,27.32062068000232,21.77113978000125,26.05477388000145,"[-0.337037037037037, -0.3287037037037037, 0.4527777777777778]","[0.08703703703703704, -0.1398148148148148, -0.05740740740740741]","[1, 1, 1]","[0, 0, 0]","[0, 0, 0]","[21.76709099999789, 26.050482999999076, 27.317000899998675]",0.0031700800027465448,27.3199860800014,['A1'],['B3'],['C3'],['yellow'],['blue'],['salmon'],621.1336814999995,None,8.0,2.7301517999985663,621.1336814999995,None,623.9338128999989,None,8.0,4.2311798999980965,628.167011900001,None,8.0,3.2316298999976425,631.5167771000015,None,5.0,2.3147925000012037,<function functionImportanceA at 0x0000022B398D6C80>,<function functionImportanceB at 0x0000022B002D0048>,<function functionImportanceC at 0x0000022B002D0598>,,,5.0,4.2311798999980965,2.0,3.2643701000015426,2.0,2.347950800001854,<function functiondiffB at 0x0000022B398D68C8>,<function functiondiffC at 0x0000022B38BC3EA0>,<function functiondiffA at 0x0000022B398D6598>,,,,,593.3331904000006,633.7335607000023,None,637.0334189999994,None,652.8328623000016,None,13,001,2022_Jul_12_1508,2leo,2021.2.3,59.99070144162057,
3,26,Plan how to wash one round of your laundry ,Stimuli/26A1.jpg,Stimuli/26A2.jpg,Stimuli/26A3.jpg,Stimuli/26B1.jpg,Stimuli/26B2.jpg,Stimuli/26B3.jpg,Stimuli/26C1.jpg,Stimuli/26C2.jpg,Stimuli/26C3.jpg,,,,,0,5,5,26,,,,,,,,654.6994001000021,None,655.6995769000023,None,661.6995298000002,None,"[0.07, 0.393]","[-0.378, -0.136]","[0.304, -0.26]","[0.306, 0.255]","[-0.377, 0.138]","[0.066, -0.395]","[0.399, -0.003]","[-0.2, 0.346]","[-0.203, -0.347]",,23.37273483000172,41.189065030001075,25.87338013000044,"[-0.3814814814814815, -0.22314814814814815, -0.3425925925925926]","[-0.13425925925925927, 0.3768518518518518, 0.10925925925925926]","[1, 1, 1]","[0, 0, 0]","[0, 0, 0]","[23.36017820000052, 25.860355400000117, 41.17628429999968]",0.012012729999696603,41.1880877299991,['A2'],['B2'],['C2'],['blue'],['yellow'],['salmon'],704.4647623000019,None,8.0,2.613607699997374,704.4647623000019,None,717.1646652999989,None,1.0,1.8318844000023091,707.1481725000012,None,1.0,6.647512100000313,713.8147012000009,None,1.0,3.34851030000209,<function functionImportanceB at 0x0000022B002D02F0>,<function functionImportanceC at 0x0000022B002D01E0>,<function functionImportanceA at 0x0000022B002D0A60>,,,1.0,1.8318844000023091,3.0,6.564445199997863,3.0,7.580987399996957,<function functiondiffB at 0x0000022B38BC39D8>,<function functiondiffA at 0x0000022B2D562E18>,<function functiondiffC at 0x0000022B38BC3D90>,,,,,662.8040378000005,718.9978486,None,733.1810375000023,None,725.5810758000007,None,13,001,2022_Jul_12_1508,2leo,2021.2.3,59.99070144162057,
3,39,Plan what kind of watch you want to buy,Stimuli/39A1.jpg,Stimuli/39A2.jpg,Stimuli/39A3.jpg,Stimuli/39B1.jpg,Stimuli/39B2.jpg,Stimuli/39B3.jpg,Stimuli/39C1.jpg,Stimuli/39C2.jpg,Stimuli/39C3.jpg,,,,,0,6,6,39,,,,,,,,736.247323399999,None,737.2475077000017,None,743.2473461000009,None,"[0.07, 0.393]","[0.304, -0.26]","[-0.378, -0.136]","[0.306, 0.255]","[0.066, -0.395]","[-0.377, 0.138]","[0.399, -0.003]","[-0.203, -0.347]","[-0.2, 0.346]",,21.483979709999403,27.350632810001116,15.11778281000079,"[-0.18888888888888888, 0.35555555555555557, 0.09351851851851851]","[-0.387037037037037, -0.25092592592592594, -0.39351851851851855]","[1, 1, 1]","[0, 0, 0]","[0, 0, 0]","[15.107322199997725, 21.47406140000021, 27.340429699997912]",0.009367910002765711,27.349477409999963,['A2'],['B2'],['C2'],['yellow'],['blue'],['salmon'],772.2130870000001,None,9.0,4.03033030000006,772.2130870000001,None,782.1129172000001,None,1.0,3.4818289000031655,776.2964046000016,None,1.0,5.780850399998599,785.6628148000018,None,1.0,2.898529800000688,<function functionImportanceB at 0x0000022B398D6EA0>,<function functionImportanceA at 0x0000022B398D6158>,<function functionImportanceC at 0x0000022B398D6268>,,,2.0,3.4818289000031655,4.0,3.130880900000193,1.0,1.8480493999995815,<function functiondiffB at 0x0000022B398D6620>,<function functiondiffA at 0x0000022B38BC3598>,<function functiondiffC at 0x0000022B398D6730>,,,,,744.3891351999991,788.4960427000005,None,793.5127474000001,None,791.6460637000018,None,13,001,2022_Jul_12_1508,2leo,2021.2.3,59.99070144162057,
3,0,Plan a barbecue,Stimuli/0A1.jpg,Stimuli/0A2.jpg,Stimuli/0A3.jpg,Stimuli/0B1.jpg,Stimuli/0B2.jpg,Stimuli/0B3.jpg,Stimuli/0C1.jpg,Stimuli/0C2.jpg,Stimuli/0C3.jpg,,,,,0,7,7,0,,,,,,,,796.3290182000019,None,797.3290272000013,None,803.328923699999,None,"[-0.377, 0.138]","[0.306, 0.255]","[0.066, -0.395]","[-0.378, -0.136]","[0.07, 0.393]","[0.304, -0.26]","[-0.2, 0.346]","[0.399, -0.003]","[-0.203, -0.347]",,14.186560020003526,30.01955922000343,21.136812020002253,"[0.28703703703703703, -0.2, 0.06574074074074074]","[0.24166666666666667, -0.37222222222222223, 0.38055555555555554]","[1, 1, 1]","[0, 0, 0]","[0, 0, 0]","[14.176847500002623, 21.126519800000096, 30.009565200001816]",0.009153420003713109,30.018692620004003,['A2'],['B2'],['C3'],['salmon'],['blue'],['yellow'],836.294743800001,None,9.0,2.630178100000194,836.294743800001,None,850.0611256000011,None,8.0,3.2819621000016923,838.994744399999,None,3.0,6.680827299998782,845.6947031999989,None,8.0,2.997132699998474,<function functionImportanceB at 0x0000022B002D00D0>,<function functionImportanceC at 0x0000022B002D0AE8>,<function functionImportanceA at 0x0000022B002D0158>,,,6.0,3.2819621000016923,7.0,3.364311400000588,7.0,3.0475861000013538,<function functiondiffA at 0x0000022B38BC3488>,<function functiondiffC at 0x0000022B002D06A8>,<function functiondiffB at 0x0000022B002D08C8>,,,,,805.8156382999987,857.9441407000013,None,855.0442876999987,None,852.3778216999999,None,13,001,2022_Jul_12_1508,2leo,2021.2.3,59.99070144162057,
3,15,Plan your own Pasta for lunch,Stimuli/15A1.jpg,Stimuli/15A2.jpg,Stimuli/15A3.jpg,Stimuli/15B1.jpg,Stimuli/15B2.jpg,Stimuli/15B3.jpg,Stimuli/15C1.jpg,Stimuli/15C2.jpg,Stimuli/15C3.jpg,,,,,0,8,8,15,,,,,,,,860.8273219000002,None,861.8275093000011,None,867.8273031999997,None,"[-0.378, -0.136]","[0.304, -0.26]","[0.07, 0.393]","[-0.377, 0.138]","[0.066, -0.395]","[0.306, 0.255]","[-0.2, 0.346]","[-0.203, -0.347]","[0.399, -0.003]",,17.5342117600012,18.650761960001546,20.117987760000688,"[0.07407407407407407, 0.0787037037037037, 0.387037037037037]","[0.3907407407407407, -0.4046296296296296, 0.000925925925925926]","[1, 1, 1]","[0, 0, 0]","[0, 0, 0]","[17.528508699997474, 18.644874799996614, 20.111590099997557]",0.005064360000687884,20.11650576000102,['A3'],['B2'],['C3'],['salmon'],['blue'],['yellow'],890.3266107999989,None,9.0,2.4970170999986294,890.3266107999989,None,893.0100472000013,None,7.0,5.431154699999752,898.3264579999995,None,8.0,2.2649953000000096,901.3264445999994,None,8.0,3.0149594000031357,<function functionImportanceA at 0x0000022B002D0268>,<function functionImportanceB at 0x0000022B0093C048>,<function functionImportanceC at 0x0000022B0093C0D0>,,,2.0,5.431154699999752,2.0,3.7807785000004515,5.0,1.9482346000004327,<function functiondiffB at 0x0000022B002D09D8>,<function functiondiffC at 0x0000022B002D0400>,<function functiondiffA at 0x0000022B002D0EA0>,,,,,869.7457742000006,903.6263841,None,907.5763243000001,None,909.3097440999991,None,13,001,2022_Jul_12_1508,2leo,2021.2.3,59.99070144162057,
3,23,Plan a city trip,Stimuli/23A1.jpg,Stimuli/23A2.jpg,Stimuli/23A3.jpg,Stimuli/23B1.jpg,Stimuli/23B2.jpg,Stimuli/23B3.jpg,Stimuli/23C1.jpg,Stimuli/23C2.jpg,Stimuli/23C3.jpg,,,,,0,9,9,23,,,,,,,,910.7761208000011,None,911.7761146000012,None,917.7760187000022,None,"[0.306, 0.255]","[-0.377, 0.138]","[0.066, -0.395]","[0.07, 0.393]","[-0.378, -0.136]","[0.304, -0.26]","[0.399, -0.003]","[-0.2, 0.346]","[-0.203, -0.347]",,16.346132310005487,12.046359710006072,21.24637621000511,"[0.2851851851851852, -0.3648148148148148, 0.39814814814814814]","[-0.28703703703703703, 0.10925925925925926, -0.01574074074074074]","[1, 1, 1]","[0, 0, 0]","[0, 0, 0]","[12.038436500002717, 16.338609700000234, 21.238409200002934]",0.007027210005617235,21.24518151000666,['A2'],['B3'],['C1'],['yellow'],['salmon'],['blue'],940.641922499999,None,9.0,4.09663929999806,940.641922499999,None,944.7919662999993,None,7.0,3.54772519999824,951.1751177000006,None,6.0,2.9818441000024904,948.4252938999998,None,5.0,2.7815536000016436,<function functionImportanceA at 0x0000022B002D0F28>,<function functionImportanceC at 0x0000022B002D0D08>,<function functionImportanceB at 0x0000022B002D0378>,,,2.0,3.54772519999824,5.0,2.3809617000006256,4.0,3.5979036999997334,<function functiondiffB at 0x0000022B002D0B70>,<function functiondiffA at 0x0000022B002D0E18>,<function functiondiffC at 0x0000022B002D0510>,,,,,918.9193864000008,954.1417408999987,None,960.158148999999,None,956.5417639000007,None,13,001,2022_Jul_12_1508,2leo,2021.2.3,59.99070144162057,
3,13,Plan a romantic date this weekend,Stimuli/13A1.jpg,Stimuli/13A2.jpg,Stimuli/13A3.jpg,Stimuli/13B1.jpg,Stimuli/13B2.jpg,Stimuli/13B3.jpg,Stimuli/13C1.jpg,Stimuli/13C2.jpg,Stimuli/13C3.jpg,,,,,0,10,10,13,,,,,,,,962.5246375999996,None,963.5248463999997,None,969.5248195000022,None,"[-0.378, -0.136]","[0.07, 0.393]","[0.304, -0.26]","[-0.377, 0.138]","[0.306, 0.255]","[0.066, -0.395]","[-0.2, 0.346]","[0.399, -0.003]","[-0.203, -0.347]",,16.22713398000269,24.99370468000052,12.92770967999968,"[-0.17037037037037037, -0.40185185185185185, -0.3425925925925926]","[0.30648148148148147, -0.1935185185185185, 0.09166666666666666]","[1, 1, 1]","[0, 0, 0]","[0, 0, 0]","[12.912105699997483, 16.212062899998273, 24.978367899999284]",0.014670579999801703,24.993016079999506,['A1'],['B1'],['C1'],['salmon'],['blue'],['yellow'],996.1737897999992,None,9.0,3.180380399997375,996.1737897999992,None,1007.1404126000016,None,7.0,8.281756899999891,1004.5738229999988,None,1.0,2.5984779999998864,999.4237759999996,None,7.0,5.0813818000024185,<function functionImportanceC at 0x0000022B0093CA60>,<function functionImportanceB at 0x0000022B0093CD08>,<function functionImportanceA at 0x0000022B002D0840>,,,1.0,8.281756899999891,7.0,7.04787750000105,1.0,1.6647405000003346,<function functiondiffB at 0x0000022B0093C158>,<function functiondiffC at 0x0000022B0093C2F0>,<function functiondiffA at 0x0000022B002D0620>,,,,,970.7114374000012,1015.423593200001,None,1022.4564405000019,None,1024.2067291000021,None,13,001,2022_Jul_12_1508,2leo,2021.2.3,59.99070144162057,
3,35,Plan how you want to do your grocery shopping ,Stimuli/35A1.jpg,Stimuli/35A2.jpg,Stimuli/35A3.jpg,Stimuli/35B1.jpg,Stimuli/35B2.jpg,Stimuli/35B3.jpg,Stimuli/35C1.jpg,Stimuli/35C2.jpg,Stimuli/35C3.jpg,,,,,0,11,11,35,,,,,,,,1025.3897073000007,None,1026.3897055000016,None,1032.3898928000017,None,"[-0.377, 0.138]","[0.306, 0.255]","[0.066, -0.395]","[-0.2, 0.346]","[0.399, -0.003]","[-0.203, -0.347]","[-0.378, -0.136]","[0.07, 0.393]","[0.304, -0.26]",,10.769849279997288,21.936215279998578,6.637124479999329,"[0.30185185185185187, 0.31666666666666665, -0.17592592592592593]","[-0.27037037037037037, 0.262037037037037, 0.3037037037037037]","[1, 1, 1]","[0, 0, 0]","[0, 0, 0]","[6.63359649999984, 10.76689830000032, 21.93308039999829]",0.002389479999692412,21.9353704799978,['A2'],['B1'],['C3'],['yellow'],['salmon'],['blue'],1056.0055556000007,None,8.0,2.379877600000327,1056.0055556000007,None,1061.4389446000023,None,6.0,3.4982175000004645,1058.5224611000012,None,8.0,2.947740999999951,1064.938724800002,None,1.0,2.84834189999674,<function functionImportanceB at 0x0000022B0093C7B8>,<function functionImportanceA at 0x0000022B0093C488>,<function functionImportanceC at 0x0000022B0093C620>,,,2.0,3.4982175000004645,8.0,2.7312127000004693,6.0,3.197424999998475,<function functiondiffA at 0x0000022B002D0488>,<function functiondiffC at 0x0000022B0093CEA0>,<function functiondiffB at 0x0000022B398D6488>,,,,,1033.5884441999988,1073.2054024999998,None,1070.988666600002,None,1067.7721824,None,13,001,2022_Jul_12_1508,2leo,2021.2.3,59.99070144162057,
3,24,Plan your Monday morning on a workday ,Stimuli/24A1.jpg,Stimuli/24A2.jpg,Stimuli/24A3.jpg,Stimuli/24B1.jpg,Stimuli/24B2.jpg,Stimuli/24B3.jpg,Stimuli/24C1.jpg,Stimuli/24C2.jpg,Stimuli/24C3.jpg,,,,,0,12,12,24,,,,,,,,1075.4383712999988,None,1076.438672799999,None,1082.4384366000013,None,"[-0.377, 0.138]","[0.066, -0.395]","[0.306, 0.255]","[-0.2, 0.346]","[-0.203, -0.347]","[0.399, -0.003]","[-0.378, -0.136]","[0.304, -0.26]","[0.07, 0.393]",,33.826349830000254,11.810858330001793,20.727417630001582,"[-0.2111111111111111, -0.3925925925925926, 0.04259259259259259]","[0.32685185185185184, -0.12962962962962962, -0.375]","[1, 1, 1]","[0, 0, 0]","[0, 0, 0]","[11.804378400000132, 20.720687900000485, 33.820061700000224]",0.00577843000064604,33.82570403000136,['A2'],['B1'],['C1'],['salmon'],['blue'],['yellow'],1117.853998900002,None,8.0,3.0471730000026582,1117.853998900002,None,1126.6538519999995,None,2.0,2.5984801999984484,1124.6706511000011,None,8.0,1.9817078999985824,1120.970768700001,None,6.0,3.680936999997357,<function functionImportanceC at 0x0000022B0093C1E0>,<function functionImportanceB at 0x0000022B0093CAE8>,<function functionImportanceA at 0x0000022B0093CC80>,,,2.0,2.5984801999984484,5.0,3.3977574999989884,7.0,2.7975848999994923,<function functiondiffB at 0x0000022B0093C268>,<function functiondiffC at 0x0000022B002D07B8>,<function functiondiffA at 0x0000022B0093C510>,,,,,1083.547501000001,1129.2536844999995,None,1132.6703812000014,None,1135.7536516,None,13,001,2022_Jul_12_1508,2leo,2021.2.3,59.99070144162057,
3,29,Plan a day in the mountains ,Stimuli/29A1.jpg,Stimuli/29A2.jpg,Stimuli/29A3.jpg,Stimuli/29B1.jpg,Stimuli/29B2.jpg,Stimuli/29B3.jpg,Stimuli/29C1.jpg,Stimuli/29C2.jpg,Stimuli/29C3.jpg,,,,,0,13,13,29,,,,,,,,1138.0700634999994,None,1139.0700988999997,None,1145.069986300001,None,"[-0.203, -0.347]","[0.399, -0.003]","[-0.2, 0.346]","[0.304, -0.26]","[0.07, 0.393]","[-0.378, -0.136]","[0.066, -0.395]","[0.306, 0.255]","[-0.377, 0.138]",,12.215519500001392,10.664602299999387,15.364818099998956,"[0.062037037037037036, -0.22037037037037038, 0.05555555555555555]","[0.3972222222222222, -0.35462962962962963, -0.40185185185185185]","[1, 1, 1]","[0, 0, 0]","[0, 0, 0]","[10.655738999997993, 12.207038900000043, 15.355792800000927]",0.008082000000285916,15.363751100001537,['A1'],['B2'],['C1'],['yellow'],['blue'],['salmon'],1162.0696036000008,None,8.0,1.7635283000017807,1162.0696036000008,None,1166.8193453000022,None,4.0,6.748058500001207,1173.5194644000003,None,2.0,2.531590499998856,1163.9028552000018,None,3.0,2.8480573000015283,<function functionImportanceC at 0x0000022B00C83048>,<function functionImportanceA at 0x0000022B0093CB70>,<function functionImportanceB at 0x0000022B0093CE18>,,,2.0,6.748058500001207,2.0,2.3476335000013933,2.0,2.26449870000215,<function functiondiffB at 0x0000022B002D0950>,<function functiondiffA at 0x0000022B398D61E0>,<function functiondiffC at 0x0000022B0093C378>,,,,,1146.2282816000006,1176.052550700002,None,1180.7025383,None,1178.4357462000007,None,13,001,2022_Jul_12_1508,2leo,2021.2.3,59.99070144162057,
3,9,Plan a picnic with friends,Stimuli/9A1.jpg,Stimuli/9A2.jpg,Stimuli/9A3.jpg,Stimuli/9B1.jpg,Stimuli/9B2.jpg,Stimuli/9B3.jpg,Stimuli/9C1.jpg,Stimuli/9C2.jpg,Stimuli/9C3.jpg,,,,,0,14,14,9,,,,,,,,1182.1356161000003,None,1183.1357441,None,1189.1356822000016,None,"[-0.2, 0.346]","[0.399, -0.003]","[-0.203, -0.347]","[-0.377, 0.138]","[0.306, 0.255]","[0.066, -0.395]","[-0.378, -0.136]","[0.07, 0.393]","[0.304, -0.26]",,22.085594680011127,21.01917108001362,9.18639158001315,"[-0.3435185185185185, 0.2916666666666667, -0.17777777777777778]","[-0.1287037037037037, 0.24351851851851852, 0.3277777777777778]","[1, 1, 1]","[0, 0, 0]","[0, 0, 0]","[9.169925300000614, 21.002858600000764, 22.06963580000229]",0.015498180011491058,22.084997680012748,['A1'],['B2'],['C1'],['salmon'],['yellow'],['blue'],1217.0847643999987,None,8.0,1.6300632999991649,1217.0847643999987,None,1220.2849438000012,None,5.0,6.2478593999985605,1226.3404391000004,None,8.0,3.4482795000003534,1229.9679127999989,None,7.0,10.515020800001366,<function functionImportanceA at 0x0000022B00C837B8>,<function functionImportanceB at 0x0000022B00C838C8>,<function functionImportanceC at 0x0000022B00C836A8>,,,1.0,6.2478593999985605,2.0,3.3979302999978245,1.0,2.464862400000129,<function functiondiffC at 0x0000022B00C83510>,<function functiondiffA at 0x0000022B0093C9D8>,<function functiondiffB at 0x0000022B00C83950>,,,,,1194.5513606000022,1244.7841129000008,None,1239.5007640000003,None,1242.384747,None,13,001,2022_Jul_12_1508,2leo,2021.2.3,59.99070144162057,
3,37,Plan your cleaning routine ,Stimuli/37A1.jpg,Stimuli/37A2.jpg,Stimuli/37A3.jpg,Stimuli/37B1.jpg,Stimuli/37B2.jpg,Stimuli/37B3.jpg,Stimuli/37C1.jpg,Stimuli/37C2.jpg,Stimuli/37C3.jpg,,,,,0,15,15,37,,,,,,,,1267.9000592000011,None,1268.9001280000011,None,1274.9000476,None,"[0.399, -0.003]","[-0.2, 0.346]","[-0.203, -0.347]","[0.07, 0.393]","[-0.378, -0.136]","[0.304, -0.26]","[0.306, 0.255]","[-0.377, 0.138]","[0.066, -0.395]",,7.05137231000117,20.501024810000672,28.834711210001842,"[-0.17222222222222222, -0.36666666666666664, 0.041666666666666664]","[0.2953703703703704, -0.1574074074074074, -0.4046296296296296]","[1, 1, 1]","[0, 0, 0]","[0, 0, 0]","[7.0496494000035455, 20.49889990000156, 28.832411200000934]",0.0011845100016216747,28.83309861000089,['A2'],['B2'],['C3'],['yellow'],['blue'],['salmon'],1305.3658576000016,None,5.0,3.347000500001741,1305.3658576000016,None,1312.4489701999992,None,1.0,3.414882100001705,1308.8158378000007,None,1.0,3.597264299998642,1315.865697600002,None,1.0,1.998610300001019,<function functionImportanceB at 0x0000022B00C83598>,<function functionImportanceA at 0x0000022B00C831E0>,<function functionImportanceC at 0x0000022B00C83840>,,,8.0,3.414882100001705,8.0,4.347639100000379,6.0,2.9978898000008485,<function functiondiffB at 0x0000022B0093C400>,<function functiondiffA at 0x0000022B0093C6A8>,<function functiondiffC at 0x0000022B00C83488>,,,,,1276.051456699999,1317.8154802999998,None,1325.1987246999997,None,1322.182076699999,None,13,001,2022_Jul_12_1508,2leo,2021.2.3,59.99070144162057,
3,40,Plan to see a sports event ,Stimuli/40A1.jpg,Stimuli/40A2.jpg,Stimuli/40A3.jpg,Stimuli/40B1.jpg,Stimuli/40B2.jpg,Stimuli/40B3.jpg,Stimuli/40C1.jpg,Stimuli/40C2.jpg,Stimuli/40C3.jpg,,,,,0,16,16,40,,,,,,,,1326.448425999999,None,1327.4487469000014,None,1333.4486580000012,None,"[0.07, 0.393]","[-0.378, -0.136]","[0.304, -0.26]","[0.399, -0.003]","[-0.2, 0.346]","[-0.203, -0.347]","[0.306, 0.255]","[-0.377, 0.138]","[0.066, -0.395]",,13.794230819999939,4.211200120000285,14.727862520001509,"[-0.19074074074074074, -0.3398148148148148, -0.36944444444444446]","[0.32037037037037036, -0.14351851851851852, 0.1537037037037037]","[1, 1, 1]","[0, 0, 0]","[0, 0, 0]","[4.203496300000552, 13.78677930000049, 14.719860600001994]",0.006940819999726955,14.72667372000069,['A2'],['B2'],['C2'],['salmon'],['yellow'],['blue'],1349.9478043000017,None,9.0,1.7466951999995217,1349.9478043000017,None,1357.6477735000008,None,9.0,4.731698399999004,1351.8980496000004,None,9.0,3.6142403000012564,1355.3979550000004,None,7.0,2.2151316000017687,<function functionImportanceB at 0x0000022B00C832F0>,<function functionImportanceC at 0x0000022B011B96A8>,<function functionImportanceA at 0x0000022B00C83B70>,,,1.0,4.731698399999004,1.0,2.747495899999194,1.0,2.531720899998618,<function functiondiffB at 0x0000022B00C83C80>,<function functiondiffA at 0x0000022B00C83268>,<function functiondiffC at 0x0000022B0093C598>,,,,,1334.7445666999993,1362.3809715999996,None,1367.6641756999998,None,1365.1142633000018,None,13,001,2022_Jul_12_1508,2leo,2021.2.3,59.99070144162057,
3,30,Plan your sport work out for tomorrow,Stimuli/30A1.jpg,Stimuli/30A2.jpg,Stimuli/30A3.jpg,Stimuli/30B1.jpg,Stimuli/30B2.jpg,Stimuli/30B3.jpg,Stimuli/30C1.jpg,Stimuli/30C2.jpg,Stimuli/30C3.jpg,,,,,0,17,17,30,,,,,,,,1371.9139146000016,None,1372.957216499999,None,1378.9307058000013,None,"[-0.377, 0.138]","[0.066, -0.395]","[0.306, 0.255]","[-0.2, 0.346]","[-0.203, -0.347]","[0.399, -0.003]","[-0.378, -0.136]","[0.304, -0.26]","[0.07, 0.393]",,13.68687779999891,7.4204623000005085,18.05399100000068,"[-0.17314814814814813, -0.35, 0.08055555555555556]","[0.325, 0.16018518518518518, 0.35555555555555557]","[1, 1, 1]","[0, 0, 0]","[0, 0, 0]","[7.408891099999892, 13.675631000001886, 18.042055900001287]",0.010845500000868924,18.05265380000128,['A1'],['B1'],['C3'],['yellow'],['blue'],['salmon'],1398.6132622000005,None,9.0,2.513206399999035,1398.6132622000005,None,1406.3463075,None,7.0,1.8981351000002178,1401.2467858000018,None,7.0,3.4311603999994986,1404.6465921999988,None,7.0,1.6815790000000561,<function functionImportanceB at 0x0000022B002D0730>,<function functionImportanceC at 0x0000022B0093C950>,<function functionImportanceA at 0x0000022B002D0D90>,,,5.0,1.8981351000002178,3.0,2.1979028999994625,5.0,3.8309595999999146,<function functiondiffA at 0x0000022B002D0C80>,<function functiondiffB at 0x0000022B0093CBF8>,<function functiondiffC at 0x0000022B00C83D90>,,,,,1380.084961200002,1412.0964805000003,None,1414.2962918000012,None,1408.229813599999,None,13,001,2022_Jul_12_1508,2leo,2021.2.3,59.99070144162057,
3,31,Plan your order at a restaurant    ,Stimuli/31A1.jpg,Stimuli/31A2.jpg,Stimuli/31A3.jpg,Stimuli/31B1.jpg,Stimuli/31B2.jpg,Stimuli/31B3.jpg,Stimuli/31C1.jpg,Stimuli/31C2.jpg,Stimuli/31C3.jpg,,,,,0,18,18,31,,,,,,,,1416.1127865000017,None,1417.1128572999987,None,1423.1129432000016,None,"[0.07, 0.393]","[-0.378, -0.136]","[0.304, -0.26]","[0.399, -0.003]","[-0.2, 0.346]","[-0.203, -0.347]","[0.306, 0.255]","[-0.377, 0.138]","[0.066, -0.395]",,21.415765860005195,20.682600360003562,6.95012016000328,"[0.06851851851851852, -0.20092592592592592, -0.37592592592592594]","[-0.3972222222222222, 0.31851851851851853, -0.175]","[1, 1, 1]","[0, 0, 0]","[0, 0, 0]","[6.941160899998067, 20.674051099998906, 21.407493599999725]",0.00774336000540643,21.41514176000419,['A2'],['B2'],['C3'],['yellow'],['blue'],['salmon'],1447.5786539,None,9.0,1.3636230000010983,1447.5786539,None,1450.412010600001,None,8.0,4.114862399997946,1453.1637045999996,None,8.0,6.948366000000533,1460.145090099999,None,8.0,1.5651072000000568,<function functionImportanceA at 0x0000022B0093C730>,<function functionImportanceB at 0x0000022B011B91E0>,<function functionImportanceC at 0x0000022B011B9950>,,,1.0,4.114862399997946,7.0,2.897860299999593,2.0,2.847968199999741,<function functiondiffA at 0x0000022B0093CD90>,<function functiondiffC at 0x0000022B011B9048>,<function functiondiffB at 0x0000022B00C830D0>,,,,,1425.7042708000008,1467.2616385000001,None,1464.5284740999996,None,1462.0118218999996,None,13,001,2022_Jul_12_1508,2leo,2021.2.3,59.99070144162057,
3,44,Plan a party at your place,Stimuli/44A1.jpg,Stimuli/44A2.jpg,Stimuli/44A3.jpg,Stimuli/44B1.jpg,Stimuli/44B2.jpg,Stimuli/44B3.jpg,Stimuli/44C1.jpg,Stimuli/44C2.jpg,Stimuli/44C3.jpg,,,,,0,19,19,44,,,,,,,,1469.6780337000018,None,1470.6781928000019,None,1476.6781101000015,None,"[0.306, 0.255]","[-0.377, 0.138]","[0.066, -0.395]","[0.399, -0.003]","[-0.2, 0.346]","[-0.203, -0.347]","[0.07, 0.393]","[-0.378, -0.136]","[0.304, -0.26]",,30.14894812000057,9.799983920001978,28.083117019999918,"[-0.17037037037037037, 0.3351851851851852, -0.37962962962962965]","[0.31666666666666665, -0.25092592592592594, 0.10277777777777777]","[1, 1, 1]","[0, 0, 0]","[0, 0, 0]","[9.790508599999157, 28.073321599997143, 30.139708099999552]",0.008699320002051536,30.148375920001854,['A2'],['B2'],['C3'],['yellow'],['salmon'],['blue'],1508.427064800002,None,8.0,3.030301300001156,1508.427064800002,None,1515.1108437000003,None,5.0,2.681995700000698,1517.7937373999994,None,10.0,2.014642099999037,1511.5270084000003,None,8.0,3.5478810999993584,<function functionImportanceC at 0x0000022B011B9620>,<function functionImportanceA at 0x0000022B011B9C80>,<function functionImportanceB at 0x0000022B011B9730>,,,8.0,2.681995700000698,1.0,2.680877300001157,5.0,4.0309503999997105,<function functiondiffB at 0x0000022B00C83AE8>,<function functiondiffA at 0x0000022B002D0BF8>,<function functiondiffC at 0x0000022B00C83378>,,,,,1477.8022472000011,1519.8103297999987,None,1526.543257199999,None,1522.4936550999992,None,13,001,2022_Jul_12_1508,2leo,2021.2.3,59.99070144162057,
3,36,Plan your shopping for new clothing,Stimuli/36A1.jpg,Stimuli/36A2.jpg,Stimuli/36A3.jpg,Stimuli/36B1.jpg,Stimuli/36B2.jpg,Stimuli/36B3.jpg,Stimuli/36C1.jpg,Stimuli/36C2.jpg,Stimuli/36C3.jpg,,,,,0,20,20,36,,,,,,,,1528.2929255000017,None,1529.2932557999993,None,1535.2933097999994,None,"[0.306, 0.255]","[-0.377, 0.138]","[0.066, -0.395]","[0.399, -0.003]","[-0.2, 0.346]","[-0.203, -0.347]","[0.07, 0.393]","[-0.378, -0.136]","[0.304, -0.26]",,10.090220530000806,23.288625130000582,24.088872029999038,"[0.23055555555555557, -0.1814814814814815, -0.33796296296296297]","[0.28703703703703703, -0.34629629629629627, -0.14166666666666666]","[1, 1, 1]","[0, 0, 0]","[0, 0, 0]","[10.078289900000527, 23.276240999999573, 24.07631649999894]",0.0115318300013314,24.08755403000032,['A1'],['B3'],['C2'],['salmon'],['blue'],['yellow'],1560.9590589,None,9.0,2.5467046999983722,1560.9590589,None,1563.5758591000013,None,8.0,3.597473199999513,1570.6422905,None,2.0,2.032056100000773,1567.192272799999,None,5.0,3.448363100000279,<function functionImportanceA at 0x0000022B011B9F28>,<function functionImportanceC at 0x0000022B011B9E18>,<function functionImportanceB at 0x0000022B011B9268>,,,6.0,3.597473199999513,6.0,3.131245599997783,4.0,2.0647080000017013,<function functiondiffB at 0x0000022B00C83D08>,<function functiondiffC at 0x0000022B00C83A60>,<function functiondiffA at 0x0000022B00C83BF8>,,,,,1536.3981511999991,1572.6754800000017,None,1575.8254713999995,None,1578.3921397000013,None,13,001,2022_Jul_12_1508,2leo,2021.2.3,59.99070144162057,
3,2,Plan which ingredients you want to use for cooking dinner today,Stimuli/2A1.jpg,Stimuli/2A2.jpg,Stimuli/2A3.jpg,Stimuli/2B1.jpg,Stimuli/2B2.jpg,Stimuli/2B3.jpg,Stimuli/2C1.jpg,Stimuli/2C2.jpg,Stimuli/2C3.jpg,,,,,0,21,21,2,,,,,,,,1579.9748736000001,None,1580.9752181000003,None,1586.9749271,None,"[-0.377, 0.138]","[0.066, -0.395]","[0.306, 0.255]","[-0.2, 0.346]","[-0.203, -0.347]","[0.399, -0.003]","[-0.378, -0.136]","[0.304, -0.26]","[0.07, 0.393]",,18.606281480013422,9.773089280013664,14.589962680012832,"[-0.2222222222222222, 0.08888888888888889, 0.2796296296296296]","[-0.3527777777777778, 0.36203703703703705, 0.22314814814814815]","[1, 1, 1]","[0, 0, 0]","[0, 0, 0]","[9.768095600000379, 14.584581199997046, 18.6015047999972]",0.004155280013947049,18.605403480014502,['A3'],['B2'],['C3'],['blue'],['yellow'],['salmon'],1612.1408985000016,None,8.0,3.2966522999995505,1612.1408985000016,None,1616.576996300002,None,5.0,7.78103910000209,1626.6075038999988,None,5.0,5.6153162000009615,1629.5406191000002,None,7.0,3.164596700000402,<function functionImportanceA at 0x0000022B0093C840>,<function functionImportanceB at 0x0000022B0093C8C8>,<function functionImportanceC at 0x0000022B011B9AE8>,,,6.0,7.78103910000209,6.0,3.51422630000161,7.0,3.3313552999970852,<function functiondiffB at 0x0000022B00C83158>,<function functiondiffA at 0x0000022B011B9840>,<function functiondiffC at 0x0000022B00C83400>,,,,,1593.073128600001,1632.907299999999,None,1639.1405167000012,None,1635.9405647000021,None,13,001,2022_Jul_12_1508,2leo,2021.2.3,59.99070144162057,
3,19,Plan how you want your garden to look like,Stimuli/19A1.jpg,Stimuli/19A2.jpg,Stimuli/19A3.jpg,Stimuli/19B1.jpg,Stimuli/19B2.jpg,Stimuli/19B3.jpg,Stimuli/19C1.jpg,Stimuli/19C2.jpg,Stimuli/19C3.jpg,,,,,0,22,22,19,,,,,,,,1641.2565925000017,None,1642.2570749000006,None,1648.2569755000004,None,"[0.066, -0.395]","[0.306, 0.255]","[-0.377, 0.138]","[0.304, -0.26]","[0.07, 0.393]","[-0.378, -0.136]","[-0.203, -0.347]","[0.399, -0.003]","[-0.2, 0.346]",,11.458071570006723,15.326397370004997,7.358690370005206,"[-0.2074074074074074, 0.3]","[-0.33796296296296297, 0.20925925925925926]","[1, 1]","[0, 0]","[0, 0]","[7.347947599999316, 11.447751300001983]",0.00980727000569459,15.324118170006841,['A2'],['B1'],['C1'],['blue'],['yellow'],['salmon'],1667.7896591999997,None,9.0,1.7451393000010285,1667.7896591999997,None,1673.6060613000009,None,7.0,2.3322612999982084,1677.1227719000017,None,7.0,2.6646762999989733,1670.9899072000007,None,7.0,3.930976499999815,<function functionImportanceC at 0x0000022B011B98C8>,<function functionImportanceA at 0x0000022B011B90D0>,<function functionImportanceB at 0x0000022B011B9B70>,,,6.0,2.3322612999982084,3.0,4.414240300000529,3.0,1.9645023999983096,<function functiondiffB at 0x0000022B011B9A60>,<function functiondiffA at 0x0000022B011B9510>,<function functiondiffC at 0x0000022B011B99D8>,,,,,1652.0112903000008,1678.8078533000007,None,1685.3559158999997,None,1683.006002000002,None,13,001,2022_Jul_12_1508,2leo,2021.2.3,59.99070144162057,
3,22,Plan a beach day with your friends,Stimuli/22A1.jpg,Stimuli/22A2.jpg,Stimuli/22A3.jpg,Stimuli/22B1.jpg,Stimuli/22B2.jpg,Stimuli/22B3.jpg,Stimuli/22C1.jpg,Stimuli/22C2.jpg,Stimuli/22C3.jpg,,,,,0,23,23,22,,,,,,,,1686.3722783000012,None,1687.3726150000002,None,1693.3726344999995,None,"[-0.378, -0.136]","[0.07, 0.393]","[0.304, -0.26]","[-0.377, 0.138]","[0.306, 0.255]","[0.066, -0.395]","[-0.2, 0.346]","[0.399, -0.003]","[-0.203, -0.347]",,13.550145590001193,21.300230090000696,9.150808089998463,"[0.4083333333333333, 0.07777777777777778, 0.37037037037037035]","[-0.028703703703703703, 0.39814814814814814, 0.2351851851851852]","[1, 1, 1]","[0, 0, 0]","[0, 0, 0]","[9.140289500002837, 13.540154300000722, 21.290011400000367]",0.009439389999897685,21.29916369000057,['A2'],['B2'],['C2'],['yellow'],['blue'],['salmon'],1716.3216021000007,None,8.0,3.9470478000002913,1716.3216021000007,None,1720.3382961999996,None,8.0,3.3476512000015646,1725.554955399999,None,5.0,2.6816205000031914,1723.7714309000003,None,8.0,1.8150234000022465,<function functionImportanceA at 0x0000022B011B9158>,<function functionImportanceC at 0x0000022B016CC048>,<function functionImportanceB at 0x0000022B016CC158>,,,2.0,3.3476512000015646,7.0,2.3479222999994818,1.0,1.7312938999966718,<function functiondiffC at 0x0000022B011B9400>,<function functiondiffA at 0x0000022B011B9D08>,<function functiondiffB at 0x0000022B011B9BF8>,,,,,1694.5468051999997,1733.304609499999,None,1728.2047850999988,None,1731.538088600002,None,13,001,2022_Jul_12_1508,2leo,2021.2.3,59.99070144162057,
3,33,Plan the items to decorate your Christmas tree,Stimuli/33A1.jpg,Stimuli/33A2.jpg,Stimuli/33A3.jpg,Stimuli/33B1.jpg,Stimuli/33B2.jpg,Stimuli/33B3.jpg,Stimuli/33C1.jpg,Stimuli/33C2.jpg,Stimuli/33C3.jpg,,,,,0,24,24,33,,,,,,,,1735.1710143000018,None,1736.1712793000006,None,1742.1709937000014,None,"[-0.203, -0.347]","[-0.2, 0.346]","[0.399, -0.003]","[0.066, -0.395]","[-0.377, 0.138]","[0.306, 0.255]","[0.304, -0.26]","[-0.378, -0.136]","[0.07, 0.393]",,14.564534709999862,11.531442010000319,20.881817109999247,"[0.09074074074074075, -0.19722222222222222, 0.07037037037037037]","[-0.3824074074074074, 0.39351851851851855, 0.387037037037037]","[1, 1, 1]","[0, 0, 0]","[0, 0, 0]","[11.520091200000024, 14.553367900000012, 20.870093800000177]",0.010630910001054872,20.880430509998405,['A2'],['B1'],['C3'],['yellow'],['salmon'],['blue'],1765.1702306000007,None,9.0,2.0630732999998145,1765.1702306000007,None,1767.8065499000004,None,2.0,4.931519100002333,1772.2367111999993,None,2.0,1.6819323000017903,1773.9702923000004,None,2.0,1.465068000001338,<function functionImportanceA at 0x0000022B016CC488>,<function functionImportanceB at 0x0000022B016CC2F0>,<function functionImportanceC at 0x0000022B016CC730>,,,7.0,4.931519100002333,7.0,1.9313559000001987,7.0,2.147886300001119,<function functiondiffC at 0x0000022B016CC1E0>,<function functiondiffB at 0x0000022B011B9378>,<function functiondiffA at 0x0000022B0093CF28>,,,,,1743.8303517000022,1779.0534250000019,None,1775.403433899999,None,1781.1366161000005,None,13,001,2022_Jul_12_1508,2leo,2021.2.3,59.99070144162057,
3,20,Plan a tea party with your friends,Stimuli/20A1.jpg,Stimuli/20A2.jpg,Stimuli/20A3.jpg,Stimuli/20B1.jpg,Stimuli/20B2.jpg,Stimuli/20B3.jpg,Stimuli/20C1.jpg,Stimuli/20C2.jpg,Stimuli/20C3.jpg,,,,,0,25,25,20,,,,,,,,1782.6697906000009,None,1783.6698294999987,None,1789.669953200002,None,"[0.399, -0.003]","[-0.203, -0.347]","[-0.2, 0.346]","[0.07, 0.393]","[0.304, -0.26]","[-0.378, -0.136]","[0.306, 0.255]","[0.066, -0.395]","[-0.377, 0.138]",,23.1507315700037,18.01760077000654,19.017941870006325,"[0.053703703703703705, 0.26666666666666666, -0.18888888888888888]","[0.337037037037037, 0.24444444444444444, -0.375]","[1, 1, 1]","[0, 0, 0]","[0, 0, 0]","[18.003215400000045, 19.00326109999878, 23.136538599999767]",0.013694570003281115,23.149942570005805,['A2'],['B1'],['C1'],['yellow'],['blue'],['salmon'],1816.852124000001,None,9.0,2.363925300000119,1816.852124000001,None,1823.9354433000008,None,3.0,2.5819217000025674,1828.9189686999998,None,8.0,4.364919100000407,1819.2690619000023,None,5.0,4.597933900000498,<function functionImportanceC at 0x0000022B016CC950>,<function functionImportanceA at 0x0000022B016CCC80>,<function functionImportanceB at 0x0000022B016CC9D8>,,,2.0,2.5819217000025674,1.0,1.9314947999992,5.0,1.9475163000024622,<function functiondiffC at 0x0000022B011B97B8>,<function functiondiffA at 0x0000022B011B9D90>,<function functiondiffB at 0x0000022B011B92F0>,,,,,1793.2479578999992,1835.9187315999989,None,1830.851884399999,None,1833.4021666000008,None,13,001,2022_Jul_12_1508,2leo,2021.2.3,59.99070144162057,
3,8,Plan the interior of your living-room ,Stimuli/8A1.jpg,Stimuli/8A2.jpg,Stimuli/8A3.jpg,Stimuli/8B1.jpg,Stimuli/8B2.jpg,Stimuli/8B3.jpg,Stimuli/8C1.jpg,Stimuli/8C2.jpg,Stimuli/8C3.jpg,,,,,0,26,26,8,,,,,,,,1836.8183070000014,None,1837.8184875000006,None,1843.8184486999999,None,"[-0.377, 0.138]","[0.306, 0.255]","[0.066, -0.395]","[-0.2, 0.346]","[0.399, -0.003]","[-0.203, -0.347]","[-0.378, -0.136]","[0.07, 0.393]","[0.304, -0.26]",,12.18834019001224,31.306413490012346,13.355820490010956,"[-0.37592592592592594, -0.3638888888888889, 0.37962962962962965]","[0.14166666666666666, -0.12685185185185185, -0.012962962962962963]","[1, 1, 1]","[0, 0, 0]","[0, 0, 0]","[12.173734100000729, 13.340621999999712, 31.291465599999356]",0.014160890012135496,31.30567299001268,['A1'],['B2'],['C1'],['salmon'],['blue'],['yellow'],1880.4672671000008,None,7.0,2.1289483000000473,1880.4672671000008,None,1882.667384299999,None,8.0,2.7810114000021713,1892.0519862,None,5.0,3.1315985999972327,1887.3672478000008,None,8.0,4.732208099998388,<function functionImportanceA at 0x0000022B016CCBF8>,<function functionImportanceC at 0x0000022B016CCF28>,<function functionImportanceB at 0x0000022B016CC6A8>,,,1.0,2.7810114000021713,8.0,3.497730099999899,2.0,2.0307334999997693,<function functiondiffA at 0x0000022B016CCD90>,<function functiondiffC at 0x0000022B01AAD268>,<function functiondiffB at 0x0000022B016CC598>,,,,,1848.7090011,1898.3503908999992,None,1895.9338217000004,None,1893.333751099999,None,13,001,2022_Jul_12_1508,2leo,2021.2.3,59.99070144162057,
3,1,Plan how to study for an exam,Stimuli/1A1.jpg,Stimuli/1A2.jpg,Stimuli/1A3.jpg,Stimuli/1B1.jpg,Stimuli/1B2.jpg,Stimuli/1B3.jpg,Stimuli/1C1.jpg,Stimuli/1C2.jpg,Stimuli/1C3.jpg,,,,,0,27,27,1,,,,,,,,1900.849761100002,None,1901.8502393999988,None,1907.8499926000004,None,"[0.304, -0.26]","[0.07, 0.393]","[-0.378, -0.136]","[0.066, -0.395]","[0.306, 0.255]","[-0.377, 0.138]","[-0.203, -0.347]","[0.399, -0.003]","[-0.2, 0.346]",,10.108324220000213,12.692867919999117,16.442290420000063,"[0.2962962962962963, 0.31296296296296294, -0.18425925925925926]","[-0.27037037037037037, 0.2601851851851852, -0.3509259259259259]","[1, 1, 1]","[0, 0, 0]","[0, 0, 0]","[10.102980399999069, 12.702868799999123, 16.436454700000468]",0.004881819997535786,16.441055920000508,['A1'],['B2'],['C1'],['yellow'],['salmon'],['blue'],1925.8995394000012,None,8.0,2.3467149999996764,1925.8995394000012,None,1937.9992610000008,None,8.0,2.2817992999989656,1928.366127100002,None,9.0,7.514715600002091,1935.8825206000001,None,7.0,2.131583700000192,<function functionImportanceB at 0x0000022B016CCEA0>,<function functionImportanceC at 0x0000022B01AAD950>,<function functionImportanceA at 0x0000022B016CC0D0>,,,7.0,2.2817992999989656,3.0,4.547197199997754,6.0,3.2643103999980667,<function functiondiffA at 0x0000022B011B9488>,<function functiondiffC at 0x0000022B01AAD620>,<function functiondiffB at 0x0000022B016CC400>,,,,,1908.980116499999,1945.348918300002,None,1943.5325384999996,None,1940.2658306000012,None,13,001,2022_Jul_12_1508,2leo,2021.2.3,59.99070144162057,
3,27,Plan what festival to visit with your friends,Stimuli/27A1.jpg,Stimuli/27A2.jpg,Stimuli/27A3.jpg,Stimuli/27B1.jpg,Stimuli/27B2.jpg,Stimuli/27B3.jpg,Stimuli/27C1.jpg,Stimuli/27C2.jpg,Stimuli/27C3.jpg,,,,,0,28,28,27,,,,,,,,1949.4318052000017,None,1950.4320174999993,None,1956.4322132000016,None,"[0.306, 0.255]","[0.066, -0.395]","[-0.377, 0.138]","[0.07, 0.393]","[0.304, -0.26]","[-0.378, -0.136]","[0.399, -0.003]","[-0.203, -0.347]","[-0.2, 0.346]",,20.659654030001548,17.513321730002644,18.626718230003462,"[0.3527777777777778, 0.44166666666666665, 0.3175925925925926]","[-0.31296296296296294, -0.020370370370370372, 0.2101851851851852]","[1, 1, 1]","[0, 0, 0]","[0, 0, 0]","[17.496869299997343, 18.61184409999987, 20.645292099998187]",0.013946630002465099,20.65907363000224,['A1'],['B2'],['C1'],['salmon'],['blue'],['yellow'],1978.6646585999988,None,8.0,2.5475698999980523,1978.6646585999988,None,1986.897840900001,None,9.0,1.6149188000017602,1984.5812368000006,None,3.0,2.3150559999994584,1981.2813425999993,None,6.0,3.2811403999985487,<function functionImportanceC at 0x0000022B01AAD7B8>,<function functionImportanceB at 0x0000022B01AADBF8>,<function functionImportanceA at 0x0000022B016CC510>,,,3.0,1.6149188000017602,5.0,4.881028800002241,1.0,2.7144344999978784,<function functiondiffA at 0x0000022B016CC378>,<function functiondiffB at 0x0000022B011B9EA0>,<function functiondiffC at 0x0000022B01AAD730>,,,,,1957.5342609,1991.247914200001,None,1996.147713800001,None,1988.5145545000014,None,13,001,2022_Jul_12_1508,2leo,2021.2.3,59.99070144162057,
3,16,Plan a delicious cake for the birthday of a friend,Stimuli/16A1.jpg,Stimuli/16A2.jpg,Stimuli/16A3.jpg,Stimuli/16B1.jpg,Stimuli/16B2.jpg,Stimuli/16B3.jpg,Stimuli/16C1.jpg,Stimuli/16C2.jpg,Stimuli/16C3.jpg,,,,,0,29,29,16,,,,,,,,1998.2471848000023,None,1999.2477227999989,None,2005.247566500002,None,"[0.304, -0.26]","[-0.378, -0.136]","[0.07, 0.393]","[-0.203, -0.347]","[-0.2, 0.346]","[0.399, -0.003]","[0.066, -0.395]","[-0.377, 0.138]","[0.306, 0.255]",,8.710122450003837,10.825574250004138,13.142246150004212,"[-0.34444444444444444, -0.2462962962962963, 0.28703703703703703]","[-0.15092592592592594, -0.3453703703703704, 0.2324074074074074]","[1, 1, 1]","[0, 0, 0]","[0, 0, 0]","[8.710062300000573, 10.810152800000651, 13.126426599999832]",0.014725050004926743,13.141017850004573,['A2'],['B1'],['C3'],['blue'],['yellow'],['salmon'],2020.2634485000017,None,7.0,2.9142060999984096,2020.2634485000017,None,2028.0467465000002,None,7.0,1.5155034999988857,2023.4637060000023,None,7.0,4.797727099998156,2029.663526700002,None,7.0,1.8821965999995882,<function functionImportanceB at 0x0000022B01AAD1E0>,<function functionImportanceA at 0x0000022B01AAD378>,<function functionImportanceC at 0x0000022B01AADEA0>,,,3.0,1.5155034999988857,1.0,3.2312149000026693,2.0,2.9802638000001025,<function functiondiffA at 0x0000022B016CC268>,<function functiondiffB at 0x0000022B01AADC80>,<function functiondiffC at 0x0000022B01AADD90>,,,,,2006.6529379000021,2034.4967681000016,None,2037.7299592999989,None,2031.4634721000002,None,13,001,2022_Jul_12_1508,2leo,2021.2.3,59.99070144162057,
3,18,Plan your Saturday night ,Stimuli/18A1.jpg,Stimuli/18A2.jpg,Stimuli/18A3.jpg,Stimuli/18B1.jpg,Stimuli/18B2.jpg,Stimuli/18B3.jpg,Stimuli/18C1.jpg,Stimuli/18C2.jpg,Stimuli/18C3.jpg,,,,,0,30,30,18,,,,,,,,2060.3627622999993,None,2061.3627715000002,None,2067.3625642000006,None,"[0.306, 0.255]","[-0.377, 0.138]","[0.066, -0.395]","[0.07, 0.393]","[-0.378, -0.136]","[0.304, -0.26]","[0.399, -0.003]","[-0.2, 0.346]","[-0.203, -0.347]",,5.9497882400028175,18.150563140003214,23.816686540001683,"[0.3175925925925926, 0.09444444444444444, -0.16111111111111112]","[0.26296296296296295, 0.37777777777777777, 0.36018518518518516]","[1, 1, 1]","[0, 0, 0]","[0, 0, 0]","[5.940585700001975, 18.156890199999907, 23.806924500000605]",0.00876404000155162,23.815611040001386,['A1'],['B1'],['C2'],['yellow'],['salmon'],['blue'],2092.744907600001,None,8.0,2.797304499999882,2092.744907600001,None,2098.428318099999,None,9.0,2.4321044999996957,2095.5783825,None,9.0,2.797872200000711,2100.8949694000003,None,1.0,2.0481980000004114,<function functionImportanceB at 0x0000022B01AAD840>,<function functionImportanceA at 0x0000022B01AAD8C8>,<function functionImportanceC at 0x0000022B01AAD510>,,,7.0,2.4321044999996957,8.0,1.7476669999996375,1.0,1.9814335000010033,<function functiondiffC at 0x0000022B016CC620>,<function functiondiffA at 0x0000022B01AAD048>,<function functiondiffB at 0x0000022B016CCE18>,,,,,2068.4540860999987,2107.428233900002,None,2102.9116600000016,None,2105.444825900002,None,13,001,2022_Jul_12_1508,2leo,2021.2.3,59.99070144162057,
3,7,Plan your Sunday breakfast ,Stimuli/7A1.jpg,Stimuli/7A2.jpg,Stimuli/7A3.jpg,Stimuli/7B1.jpg,Stimuli/7B2.jpg,Stimuli/7B3.jpg,Stimuli/7C1.jpg,Stimuli/7C2.jpg,Stimuli/7C3.jpg,,,,,0,31,31,7,,,,,,,,2108.7110238999994,None,2109.7114303000017,None,2115.7114083000015,None,"[0.304, -0.26]","[0.07, 0.393]","[-0.378, -0.136]","[0.066, -0.395]","[0.306, 0.255]","[-0.377, 0.138]","[-0.203, -0.347]","[0.399, -0.003]","[-0.2, 0.346]",,24.840056560009543,23.607197360008286,17.474186860010377,"[-0.17222222222222222, -0.32037037037037036, -0.36018518518518516]","[0.30833333333333335, 0.1111111111111111, -0.13333333333333333]","[1, 1, 1]","[0, 0, 0]","[0, 0, 0]","[17.460781099998712, 23.594018799998594, 24.827165499998955]",0.012216260009154212,24.83928676000869,['A3'],['B3'],['C3'],['blue'],['salmon'],['yellow'],2146.9602999000017,None,8.0,1.6468464999998105,2146.9602999000017,None,2150.3936135000004,None,8.0,4.631137899999885,2157.859832099999,None,8.0,3.9813528999984555,2154.5267811000012,None,2.0,2.648747100000037,<function functionImportanceA at 0x0000022B01AAD9D8>,<function functionImportanceC at 0x0000022B00C83620>,<function functionImportanceB at 0x0000022B00C83EA0>,,,2.0,4.631137899999885,5.0,5.347593999998935,8.0,3.131486900001619,<function functiondiffB at 0x0000022B01AADAE8>,<function functiondiffC at 0x0000022B01E2B0D0>,<function functiondiffA at 0x0000022B01AADE18>,,,,,2121.668387599999,2160.594271099999,None,2165.659738999999,None,2168.093250599999,None,13,001,2022_Jul_12_1508,2leo,2021.2.3,59.99070144162057,
3,6,Plan your wedding,Stimuli/6A1.jpg,Stimuli/6A2.jpg,Stimuli/6A3.jpg,Stimuli/6B1.jpg,Stimuli/6B2.jpg,Stimuli/6B3.jpg,Stimuli/6C1.jpg,Stimuli/6C2.jpg,Stimuli/6C3.jpg,,,,,0,32,32,6,,,,,,,,2170.242972799999,None,2171.2430612999997,None,2177.2429594000023,None,"[-0.378, -0.136]","[0.07, 0.393]","[0.304, -0.26]","[-0.377, 0.138]","[0.306, 0.255]","[0.066, -0.395]","[-0.2, 0.346]","[0.399, -0.003]","[-0.203, -0.347]",,17.67376048000733,22.70748428000661,22.190794080008345,"[-0.325, -0.2212962962962963, 0.04259259259259259]","[-0.14722222222222223, -0.38425925925925924, -0.412962962962963]","[1, 1, 1]","[0, 0, 0]","[0, 0, 0]","[17.664713099999062, 22.18105220000143, 22.698008100000152]",0.008627480008726707,22.706346380007744,['A1'],['B3'],['C3'],['blue'],['yellow'],['salmon'],2205.6585803999988,None,6.0,2.063078900002438,2205.6585803999988,None,2215.7122445000023,None,6.0,4.348754800001188,2209.5276436999993,None,1.0,3.8977511999983108,2212.9586869000013,None,0.0,2.731616799999756,<function functionImportanceB at 0x0000022B016CCB70>,<function functionImportanceC at 0x0000022B016CC8C8>,<function functionImportanceA at 0x0000022B00C83F28>,,,10.0,4.348754800001188,8.0,3.9142365000006976,4.0,3.1642907000023115,<function functiondiffB at 0x0000022B01AADF28>,<function functiondiffA at 0x0000022B01AAD2F0>,<function functiondiffC at 0x0000022B01E2B510>,,,,,2182.4938638999993,2219.175207600001,None,2226.2921731999995,None,2223.0417122,None,13,001,2022_Jul_12_1508,2leo,2021.2.3,59.99070144162057,
3,21,Plan your sandwich for lunch,Stimuli/21A1.jpg,Stimuli/21A2.jpg,Stimuli/21A3.jpg,Stimuli/21B1.jpg,Stimuli/21B2.jpg,Stimuli/21B3.jpg,Stimuli/21C1.jpg,Stimuli/21C2.jpg,Stimuli/21C3.jpg,,,,,0,33,33,21,,,,,,,,2227.7911663000014,None,2228.7915337000013,None,2234.791690500002,None,"[0.066, -0.395]","[0.306, 0.255]","[-0.377, 0.138]","[0.304, -0.26]","[0.07, 0.393]","[-0.378, -0.136]","[-0.203, -0.347]","[0.399, -0.003]","[-0.2, 0.346]",,6.1589593999960925,9.442147599995224,15.075344899996708,"[-0.3333333333333333, -0.3509259259259259, 0.4324074074074074]","[0.09722222222222222, -0.12685185185185185, -0.005555555555555556]","[1, 1, 1]","[0, 0, 0]","[0, 0, 0]","[6.153281299997616, 9.436160299999756, 15.069264499998098]",0.005068099995696684,15.074221299997589,['A3'],['B3'],['C2'],['blue'],['salmon'],['yellow'],2251.5074858000007,None,8.0,5.897294700000202,2251.5074858000007,None,2260.5241576000008,None,8.0,1.5485675999989326,2257.507485500002,None,6.0,2.998067299999093,2262.1074273000013,None,7.0,2.1816986999983783,<function functionImportanceB at 0x0000022B016CC7B8>,<function functionImportanceA at 0x0000022B01AADB70>,<function functionImportanceC at 0x0000022B016CC840>,,,5.0,1.5485675999989326,1.0,2.3645311999971454,2.0,2.3481305000022985,<function functiondiffB at 0x0000022B01AADA60>,<function functiondiffC at 0x0000022B01E2B950>,<function functiondiffA at 0x0000022B01AAD0D0>,,,,,2235.951768499999,2264.223980300001,None,2266.607200800001,None,2268.890604600001,None,13,001,2022_Jul_12_1508,2leo,2021.2.3,59.99070144162057,
3,34,Plan what car you want to buy,Stimuli/34A1.jpg,Stimuli/34A2.jpg,Stimuli/34A3.jpg,Stimuli/34B1.jpg,Stimuli/34B2.jpg,Stimuli/34B3.jpg,Stimuli/34C1.jpg,Stimuli/34C2.jpg,Stimuli/34C3.jpg,,,,,0,34,34,34,,,,,,,,2270.7733348,None,2271.773790700001,None,2277.773715899999,None,"[0.066, -0.395]","[0.306, 0.255]","[-0.377, 0.138]","[-0.203, -0.347]","[0.399, -0.003]","[-0.2, 0.346]","[0.304, -0.26]","[0.07, 0.393]","[-0.378, -0.136]",,5.142816560008214,18.475290560007124,13.09331476000807,"[-0.38796296296296295, 0.34074074074074073, -0.175]","[0.12314814814814815, -0.3101851851851852, -0.37222222222222223]","[1, 1, 1]","[0, 0, 0]","[0, 0, 0]","[5.126929399997607, 13.092886399997951, 18.459825699999783]",0.014784260005399119,18.474215560006996,['A3'],['B1'],['C1'],['salmon'],['blue'],['yellow'],2299.7894812000013,None,9.0,2.3632362999996985,2299.7894812000013,None,2306.506078300001,None,5.0,3.73195620000115,2303.1743012000006,None,2.0,3.2310063000004448,2309.222873900002,None,3.0,2.682089599999017,<function functionImportanceB at 0x0000022B01E2BE18>,<function functionImportanceA at 0x0000022B01AAD158>,<function functionImportanceC at 0x0000022B01E2BD90>,,,6.0,3.73195620000115,8.0,3.664328899998509,3.0,3.281080100001418,<function functiondiffB at 0x0000022B016CCD08>,<function functiondiffC at 0x0000022B01E2BD08>,<function functiondiffA at 0x0000022B01AAD400>,,,,,2280.8607991999997,2312.1393377999993,None,2315.5726388000003,None,2319.6410314000022,None,13,001,2022_Jul_12_1508,2leo,2021.2.3,59.99070144162057,
3,17,Plan a day in Barcelona with a friend who is new to the city,Stimuli/17A1.jpg,Stimuli/17A2.jpg,Stimuli/17A3.jpg,Stimuli/17B1.jpg,Stimuli/17B2.jpg,Stimuli/17B3.jpg,Stimuli/17C1.jpg,Stimuli/17C2.jpg,Stimuli/17C3.jpg,,,,,0,35,35,17,,,,,,,,2322.1053259,None,2323.105759000002,None,2329.1057389000016,None,"[0.306, 0.255]","[0.066, -0.395]","[-0.377, 0.138]","[0.07, 0.393]","[0.304, -0.26]","[-0.378, -0.136]","[0.399, -0.003]","[-0.203, -0.347]","[-0.2, 0.346]",,31.574098699999013,14.174955800001044,15.541672399998788,"[0.262037037037037, 0.32592592592592595, 0.2722222222222222]","[-0.27685185185185185, 0.005555555555555556, 0.29074074074074074]","[1, 1, 1]","[0, 0, 0]","[0, 0, 0]","[14.169242100000702, 15.53586659999928, 31.568772300001]",0.00489229999948293,31.573610200000985,['A1'],['B2'],['C1'],['yellow'],['salmon'],['blue'],2362.3212219000015,None,6.0,2.930897099999129,2362.3212219000015,None,2372.2710761000017,None,2.0,1.8821496999989904,2369.5877684000006,None,7.0,2.614994300001854,2365.3213257999996,None,9.0,4.23083250000127,<function functionImportanceC at 0x0000022B01E2B488>,<function functionImportanceB at 0x0000022B01E2B6A8>,<function functionImportanceA at 0x0000022B01E2B840>,,,8.0,1.8821496999989904,6.0,2.031100100000913,10.0,1.4145642000003136,<function functiondiffC at 0x0000022B01E2B400>,<function functiondiffB at 0x0000022B01E2BB70>,<function functiondiffA at 0x0000022B016CCA60>,,,,,2330.2668484999995,2376.6709556999995,None,2374.0541964000004,None,2378.720739200002,None,13,001,2022_Jul_12_1508,2leo,2021.2.3,59.99070144162057,
3,11,Plan a hike in nature on a free day,Stimuli/11A1.jpg,Stimuli/11A2.jpg,Stimuli/11A3.jpg,Stimuli/11B1.jpg,Stimuli/11B2.jpg,Stimuli/11B3.jpg,Stimuli/11C1.jpg,Stimuli/11C2.jpg,Stimuli/11C3.jpg,,,,,0,36,36,11,,,,,,,,2379.654698999999,None,2380.654161300001,None,2386.654210200002,None,"[-0.377, 0.138]","[0.066, -0.395]","[0.306, 0.255]","[-0.378, -0.136]","[0.304, -0.26]","[0.07, 0.393]","[-0.2, 0.346]","[-0.203, -0.347]","[0.399, -0.003]",,5.081374110002798,8.864786210000602,11.664930010003445,"[0.3138888888888889, 0.28888888888888886, 0.3731481481481482]","[0.24814814814814815, -0.2675925925925926, -0.008333333333333333]","[1, 1, 1]","[0, 0, 0]","[0, 0, 0]","[5.064474800001335, 8.847724700000981, 11.647550199999387]",0.01628511000308208,11.663614410001173,['A3'],['B2'],['C3'],['blue'],['salmon'],['yellow'],2399.9203516000016,None,9.0,2.1642935999989277,2399.9203516000016,None,2404.4870790000023,None,10.0,1.6484412999998312,2406.15366,None,5.0,2.131563599999936,2402.153798899999,None,7.0,2.314393900000141,<function functionImportanceC at 0x0000022B01E2B7B8>,<function functionImportanceA at 0x0000022B01E2BC80>,<function functionImportanceB at 0x0000022B01E2B158>,,,2.0,1.6484412999998312,2.0,2.9645969000011974,1.0,2.247789199998806,<function functiondiffA at 0x0000022B016CCAE8>,<function functiondiffC at 0x0000022B01AAD488>,<function functiondiffB at 0x0000022B01E2B598>,,,,,2387.7880459000007,2412.320131700002,None,2410.536809000001,None,2408.2702105999997,None,13,001,2022_Jul_12_1508,2leo,2021.2.3,59.99070144162057,
3,5,Plan a birthday party for your younger self when you turn eight,Stimuli/5A1.jpg,Stimuli/5A2.jpg,Stimuli/5A3.jpg,Stimuli/5B1.jpg,Stimuli/5B2.jpg,Stimuli/5B3.jpg,Stimuli/5C1.jpg,Stimuli/5C2.jpg,Stimuli/5C3.jpg,,,,,0,37,37,5,,,,,,,,2414.803301600001,None,2415.8032439000017,None,2421.8034014000004,None,"[-0.377, 0.138]","[0.066, -0.395]","[0.306, 0.255]","[-0.2, 0.346]","[-0.203, -0.347]","[0.399, -0.003]","[-0.378, -0.136]","[0.304, -0.26]","[0.07, 0.393]",,24.63362856000822,32.838696260005236,22.934020760007115,"[0.2851851851851852, 0.3037037037037037, 0.5064814814814815, 0.4388888888888889]","[-0.2722222222222222, 0.2074074074074074, 0.022222222222222223, -0.016666666666666666]","[1, 1, 1, 1]","[0, 0, 0, 0]","[0, 0, 0, 0]","[22.916511100000207, 24.616555399999925, 31.732922200000758, 32.82138009999835]",0.0164776600067853,32.83784366000691,['A3'],['B3'],['C2'],['blue'],['yellow'],['salmon'],2460.8853407999995,None,6.0,1.9581333999994968,2460.8853407999995,None,2469.0852073999995,None,3.0,4.7150465000013355,2472.735192,None,-0.0,2.782004799999413,2463.5187110000006,None,6.0,3.5810844999978144,<function functionImportanceC at 0x0000022B01E2B620>,<function functionImportanceA at 0x0000022B01E2B048>,<function functionImportanceB at 0x0000022B01E2B1E0>,,,3.0,4.7150465000013355,10.0,2.347730800000136,6.0,3.481054400002904,<function functiondiffA at 0x0000022B011B9598>,<function functiondiffB at 0x0000022B01E2BF28>,<function functiondiffC at 0x0000022B023509D8>,,,,,2427.5907110000007,2477.8349074,None,2479.9850719999995,None,2474.785882299999,None,13,001,2022_Jul_12_1508,2leo,2021.2.3,59.99070144162057,
3,12,Plan the ingredients to mix yourself a cocktail,Stimuli/12A1.jpg,Stimuli/12A2.jpg,Stimuli/12A3.jpg,Stimuli/12B1.jpg,Stimuli/12B2.jpg,Stimuli/12B3.jpg,Stimuli/12C1.jpg,Stimuli/12C2.jpg,Stimuli/12C3.jpg,,,,,0,38,38,12,,,,,,,,2483.3687259,None,2484.3682222999996,None,2490.3678364000007,None,"[-0.203, -0.347]","[0.399, -0.003]","[-0.2, 0.346]","[0.304, -0.26]","[0.07, 0.393]","[-0.378, -0.136]","[0.066, -0.395]","[0.306, 0.255]","[-0.377, 0.138]",,20.455295989999286,19.60547148999831,18.905662889999803,"[0.07685185185185185, 0.09907407407407408, -0.15648148148148147]","[-0.3574074074074074, 0.43425925925925923, -0.29814814814814816]","[1, 1, 1]","[0, 0, 0]","[0, 0, 0]","[18.892733299999236, 19.592732900000556, 20.44295140000031]",0.011936089998926036,20.454569189998438,['A1'],['B2'],['C1'],['blue'],['salmon'],['yellow'],2512.4672377999996,None,9.0,2.3967515000003914,2512.4672377999996,None,2517.833911400001,None,7.0,2.4985849000004237,2520.2838706000002,None,6.0,2.5151967000019795,2514.9507841000013,None,9.0,2.7813099999984843,<function functionImportanceC at 0x0000022B02350488>,<function functionImportanceA at 0x0000022B01E2BEA0>,<function functionImportanceB at 0x0000022B02350BF8>,,,7.0,2.4985849000004237,3.0,1.8484141999979329,5.0,5.6147289000000455,<function functiondiffC at 0x0000022B01E2B8C8>,<function functiondiffB at 0x0000022B01E2B9D8>,<function functiondiffA at 0x0000022B01E2B378>,,,,,2491.5395382999995,2526.117209799999,None,2522.7504996999996,None,2527.9837050999995,None,13,001,2022_Jul_12_1508,2leo,2021.2.3,59.99070144162057,
3,41,Plan how you want to have dinner tonight ,Stimuli/41A1.jpg,Stimuli/41A2.jpg,Stimuli/41A3.jpg,Stimuli/41B1.jpg,Stimuli/41B2.jpg,Stimuli/41B3.jpg,Stimuli/41C1.jpg,Stimuli/41C2.jpg,Stimuli/41C3.jpg,,,,,0,39,39,41,,,,,,,,2533.1175267,None,2534.1170721000017,None,2540.1167902000016,None,"[0.304, -0.26]","[0.07, 0.393]","[-0.378, -0.136]","[0.066, -0.395]","[0.306, 0.255]","[-0.377, 0.138]","[-0.203, -0.347]","[0.399, -0.003]","[-0.2, 0.346]",,13.896123500002432,10.196660800000245,11.280001600000105,"[0.08518518518518518, -0.1388888888888889, 0.3212962962962963]","[-0.3888888888888889, -0.35185185185185186, -0.24166666666666667]","[1, 1, 1]","[0, 0, 0]","[0, 0, 0]","[10.187647700000525, 11.270717100000184, 13.887415599998349]",0.008269000001746463,13.895609800001694,['A1'],['B1'],['C1'],['yellow'],['blue'],['salmon'],2555.8160608,None,9.0,3.28038259999812,2555.8160608,None,2561.7662366000004,None,9.0,1.8315871999984665,2559.166315000002,None,9.0,2.564972399999533,2563.7661561999994,None,8.0,1.9817871999985073,<function functionImportanceB at 0x0000022B023500D0>,<function functionImportanceA at 0x0000022B01E2BAE8>,<function functionImportanceC at 0x0000022B02350268>,,,2.0,1.8315871999984665,3.0,2.297775700000784,5.0,2.6807814999992843,<function functiondiffC at 0x0000022B02350D08>,<function functiondiffB at 0x0000022B02350D90>,<function functiondiffA at 0x0000022B02350400>,,,,,2541.4451966000015,2569.5660953000006,None,2565.599460199999,None,2571.882566,None,13,001,2022_Jul_12_1508,2leo,2021.2.3,59.99070144162057,
3,25,Plan how you want to read a book in your free time ,Stimuli/25A1.jpg,Stimuli/25A2.jpg,Stimuli/25A3.jpg,Stimuli/25B1.jpg,Stimuli/25B2.jpg,Stimuli/25B3.jpg,Stimuli/25C1.jpg,Stimuli/25C2.jpg,Stimuli/25C3.jpg,,,,,0,40,40,25,,,,,,,,2574.083340000001,None,2575.0823261000005,None,2581.0822031999996,None,"[0.066, -0.395]","[-0.377, 0.138]","[0.306, 0.255]","[0.304, -0.26]","[-0.378, -0.136]","[0.07, 0.393]","[-0.203, -0.347]","[-0.2, 0.346]","[0.399, -0.003]",,11.941363730002195,9.091427230003319,5.825398030003271,"[0.3907407407407407, -0.36203703703703705, 0.07037037037037037]","[0.002777777777777778, -0.17037037037037037, -0.375]","[1, 1, 1]","[0, 0, 0]","[0, 0, 0]","[5.817899800000305, 9.084256300000561, 11.934562200000073]",0.00640733000182081,11.940650130003633,['A1'],['B2'],['C3'],['salmon'],['yellow'],['blue'],2594.948582699999,None,8.0,2.080412899998919,2594.948582699999,None,2603.5482575999995,None,8.0,2.048471000001882,2597.1319602000003,None,8.0,3.381113599996752,2600.7980943000002,None,8.0,3.0319349999990663,<function functionImportanceB at 0x0000022B02350EA0>,<function functionImportanceC at 0x0000022B02350620>,<function functionImportanceA at 0x0000022B01E2BA60>,,,1.0,2.048471000001882,2.0,1.5480955999992148,3.0,2.4146843000016815,<function functiondiffA at 0x0000022B01E2B268>,<function functiondiffB at 0x0000022B02350598>,<function functiondiffC at 0x0000022B023508C8>,,,,,2582.542643500001,2608.031638100001,None,2609.6481464999997,None,2605.5814049,None,13,001,2022_Jul_12_1508,2leo,2021.2.3,59.99070144162057,
3,42,Plan how to draw a painting ,Stimuli/42A1.jpg,Stimuli/42A2.jpg,Stimuli/42A3.jpg,Stimuli/42B1.jpg,Stimuli/42B2.jpg,Stimuli/42B3.jpg,Stimuli/42C1.jpg,Stimuli/42C2.jpg,Stimuli/42C3.jpg,,,,,0,41,41,42,,,,,,,,2610.8990728999997,None,2611.898301600002,None,2617.898053500001,None,"[0.066, -0.395]","[0.306, 0.255]","[-0.377, 0.138]","[-0.203, -0.347]","[0.399, -0.003]","[-0.2, 0.346]","[0.304, -0.26]","[0.07, 0.393]","[-0.378, -0.136]",,9.233593040000414,5.000620239999989,12.20068234000064,"[-0.1648148148148148, 0.37037037037037035, 0.33611111111111114]","[-0.34444444444444444, 0.2222222222222222, -0.28425925925925927]","[1, 1, 1]","[0, 0, 0]","[0, 0, 0]","[4.998415199999727, 9.231524899998476, 12.198176499998226]",0.0015235400023811962,12.19947744000092,['A2'],['B1'],['C1'],['blue'],['yellow'],['salmon'],2631.847432999999,None,8.0,2.58008239999981,2631.847432999999,None,2637.564149500002,None,8.0,2.048417400001199,2634.497583799999,None,8.0,2.89763529999982,2639.480691500001,None,8.0,1.7484360999987985,<function functionImportanceB at 0x0000022B02350A60>,<function functionImportanceA at 0x0000022B02350730>,<function functionImportanceC at 0x0000022B02350E18>,,,1.0,2.048417400001199,2.0,1.8646699999990233,3.0,2.6148224999997183,<function functiondiffA at 0x0000022B01E2BBF8>,<function functiondiffB at 0x0000022B023507B8>,<function functiondiffC at 0x0000022B023502F0>,,,,,2619.1653903000006,2643.8472082000008,None,2645.730543400001,None,2641.247299800001,None,13,001,2022_Jul_12_1508,2leo,2021.2.3,59.99070144162057,
3,14,Plan your own Pizza for dinner,Stimuli/14A1.jpg,Stimuli/14A2.jpg,Stimuli/14A3.jpg,Stimuli/14B1.jpg,Stimuli/14B2.jpg,Stimuli/14B3.jpg,Stimuli/14C1.jpg,Stimuli/14C2.jpg,Stimuli/14C3.jpg,,,,,0,42,42,14,,,,,,,,2647.514878599999,None,2648.5139199000005,None,2654.513869999999,None,"[-0.378, -0.136]","[0.07, 0.393]","[0.304, -0.26]","[-0.377, 0.138]","[0.306, 0.255]","[0.066, -0.395]","[-0.2, 0.346]","[0.399, -0.003]","[-0.203, -0.347]",,17.13703770000211,7.837676499999361,18.62114550000115,"[-0.387037037037037, 0.04259259259259259, 0.4222222222222222]","[0.09351851851851851, 0.337037037037037, -0.05185185185185185]","[1, 1, 1]","[0, 0, 0]","[0, 0, 0]","[7.825820900001418, 17.125341499999195, 18.608834200000274]",0.011168900000484427,18.61986170000091,['A2'],['B1'],['C2'],['salmon'],['yellow'],['blue'],2674.763107499999,None,8.0,1.996947600000567,2674.763107499999,None,2676.8297858000005,None,9.0,2.36428689999957,2681.5131409999995,None,9.0,1.4992706999983056,2679.1964248000004,None,9.0,2.23161970000001,<function functionImportanceA at 0x0000022B02350C80>,<function functionImportanceC at 0x0000022B026842F0>,<function functionImportanceB at 0x0000022B02684158>,,,3.0,2.36428689999957,1.0,2.497564900000725,9.0,1.797559899998305,<function functiondiffB at 0x0000022B02684AE8>,<function functiondiffC at 0x0000022B02684730>,<function functiondiffA at 0x0000022B02350378>,,,,,2655.6680472000007,2682.9631401000006,None,2685.4630027999992,None,2687.8795892000016,None,13,001,2022_Jul_12_1508,2leo,2021.2.3,59.99070144162057,
3,10,Plan a restaurant visit with your family on the weekend ,Stimuli/10A1.jpg,Stimuli/10A2.jpg,Stimuli/10A3.jpg,Stimuli/10B1.jpg,Stimuli/10B2.jpg,Stimuli/10B3.jpg,Stimuli/10C1.jpg,Stimuli/10C2.jpg,Stimuli/10C3.jpg,,,,,0,43,43,10,,,,,,,,2689.197209099999,None,2690.195938500001,None,2696.1961570999993,None,"[-0.377, 0.138]","[0.306, 0.255]","[0.066, -0.395]","[-0.378, -0.136]","[0.07, 0.393]","[0.304, -0.26]","[-0.2, 0.346]","[0.399, -0.003]","[-0.203, -0.347]",,9.892287260008743,19.692463560008036,10.742655760008347,"[0.3472222222222222, -0.18518518518518517, 0.26944444444444443]","[0.23425925925925925, -0.36574074074074076, -0.22592592592592592]","[1, 1, 1]","[0, 0, 0]","[0, 0, 0]","[9.88899450000099, 10.738763599998492, 19.688828599999397]",0.0027782600081991404,19.691255060010008,['A2'],['B3'],['C3'],['salmon'],['blue'],['yellow'],2720.2949689999987,None,7.0,2.3470184999969206,2720.2949689999987,None,2729.778173400002,None,5.0,1.9652003000010154,2728.2002235,None,9.0,4.264924800001609,2722.6952772000004,None,5.0,2.6647114000006695,<function functionImportanceC at 0x0000022B026849D8>,<function functionImportanceB at 0x0000022B02684598>,<function functionImportanceA at 0x0000022B026848C8>,,,3.0,1.9652003000010154,8.0,2.2314203000023554,3.0,2.1814025999992737,<function functiondiffA at 0x0000022B02684840>,<function functiondiffB at 0x0000022B02684620>,<function functiondiffC at 0x0000022B026846A8>,,,,,2700.1398292000013,2734.611635699999,None,2736.078224699999,None,2731.6449799,None,13,001,2022_Jul_12_1508,2leo,2021.2.3,59.99070144162057,
3,32,Plan how you want to relax after a workday,Stimuli/32A1.jpg,Stimuli/32A2.jpg,Stimuli/32A3.jpg,Stimuli/32B1.jpg,Stimuli/32B2.jpg,Stimuli/32B3.jpg,Stimuli/32C1.jpg,Stimuli/32C2.jpg,Stimuli/32C3.jpg,,,,,0,44,44,32,,,,,,,,2737.446435400001,None,2738.4613247999987,None,2744.4614103999993,None,"[0.306, 0.255]","[-0.377, 0.138]","[0.066, -0.395]","[0.399, -0.003]","[-0.2, 0.346]","[-0.203, -0.347]","[0.07, 0.393]","[-0.378, -0.136]","[0.304, -0.26]",,17.25552979000713,9.992237090005801,20.055683590006083,"[-0.19814814814814816, -0.4203703703703704, 0.02962962962962963]","[-0.32685185185185184, 0.11203703703703703, 0.37037037037037035]","[1, 1, 1]","[0, 0, 0]","[0, 0, 0]","[9.976109399998677, 17.241839099999197, 20.041551099999197]",0.013189590008551022,20.054599090006377,['A2'],['B3'],['C1'],['blue'],['salmon'],['yellow'],2768.0105115000006,None,9.0,2.0638754999999946,2768.0105115000006,None,2773.3438365,None,9.0,2.7983469999999215,2775.943815900002,None,9.0,2.7653930000014952,2770.1440513000016,None,7.0,2.081004600000597,<function functionImportanceC at 0x0000022B02684950>,<function functionImportanceA at 0x0000022B02684BF8>,<function functionImportanceB at 0x0000022B02684B70>,,,3.0,2.7983469999999215,7.0,3.230961000001116,9.0,2.964893199998187,<function functiondiffB at 0x0000022B02684378>,<function functiondiffA at 0x0000022B026840D0>,<function functiondiffC at 0x0000022B02684F28>,,,,,2747.503489999999,2777.9939395,None,2784.0270012,None,2781.410560600001,None,13,001,2022_Jul_12_1508,2leo,2021.2.3,59.99070144162057,
