Condition,N_Scenario,written_scenario,ImageA1,ImageA2,ImageA3,ImageB1,ImageB2,ImageB3,ImageC1,ImageC2,ImageC3,trials_2.thisRepN,trials_2.thisTrialN,trials_2.thisN,trials_2.thisIndex,trial.thisRepN,trial.thisTrialN,trial.thisN,trial.thisIndex,button_2.started,button_2.stopped,button_2.numClicks,button_2.timesOn,button_2.timesOff,text.started,text.stopped,fixationcross1_started,fixationcross1_stopped,Scenario_started,Scenario_stopped,fixationcross2_started,fixationcross2_stopped,A1pos,A2pos,A3pos,B1pos,B2pos,B3pos,C1pos,C2pos,C3pos,﻿Imagesdecision_started,decisiontimeA,decisiontimeB,decisiontimeC,mouse_x,mouse_y,mouse_leftButton,mouse_midButton,mouse_rightButton,mouse_time,mouse_started,mouse_stopped,clicked_optionA,clicked_optionB,clicked_optionC,colour_category_A,colour_category_B,colour_category_C,question_confidence_started,question_confidence_stopped,slider_confidence_response,slider_confidence_rt,slider_confidence_started,slider_confidence_stopped,question_valueA_started,question_valueA_stopped,slider_valueA_response,slider_valueA_rt,question_valueB_started,question_valueB_stopped,slider_valueB_response,slider_valueB_rt,question_valueC_started,question_valueC_stopped,slider_valueC_response,slider_valueC_rt,Importance_First,Importance_Second,Importance_Third,question_diff_started,question_diff_stopped,slider_diffC_response,slider_diffC_rt,slider_diffA_response,slider_diffA_rt,slider_diffB_response,slider_diffB_rt,diff_First,diff_Second,diff_Third,button_3_started,button_3_stopped,text_2_started,text_2_stopped,Imagesdecision_started,question_diffB_started,question_diffB_stopped,question_diffC_started,question_diffC_stopped,question_diffA_started,question_diffA_stopped,participant,session,date,expName,psychopyVersion,frameRate,
3,2,Plan a party to celebrate your birthday,Stimuli/2A1t.jpg,Stimuli/2A2t.jpg,Stimuli/2A3t.jpg,Stimuli/2B1t.jpg,Stimuli/2B2t.jpg,Stimuli/2B3t.jpg,Stimuli/2C1t.jpg,Stimuli/2C2t.jpg,Stimuli/2C3t.jpg,0,0,0,0,,,,,24.71603000000323,None,1,[1.7927732999996806],[1.792787499998667],24.71603000000323,None,81.02144030000272,None,82.03108460000294,None,88.03086820000317,None,"[-0.378, -0.136]","[0.07, 0.393]","[0.304, -0.26]","[-0.2, 0.346]","[0.399, -0.003]","[-0.203, -0.347]","[-0.377, 0.138]","[0.306, 0.255]","[0.066, -0.395]",92.01389460000064,51.3935398200083,55.692416820009385,61.02571112001169,"[0.05185185185185185, -0.1527777777777778, 0.30092592592592593, 0.3037037037037037]","[0.3333333333333333, 0.33425925925925926, 0.15833333333333333, 0.17407407407407408]","[1, 1, 1, 1]","[0, 0, 0, 0]","[0, 0, 0, 0]","[51.38131599999906, 55.67990629999986, 60.579728499997145, 61.01298759999918]",0.011705420009093359,61.02457062001122,['A2'],['B1'],['C2'],['blue'],['yellow'],['salmon'],153.49559500000032,None,10.0,3.8469274999988556,153.49559500000032,None,158.69560700000147,None,10.0,10.130653299998812,169.1005580000019,None,6.0,5.965395400002308,173.56187550000323,None,5.0,2.5807079000005615,<function functionImportanceAt at 0x000002C59C881D08>,<function functionImportanceBt at 0x000002C59C881EA0>,<function functionImportanceCt at 0x000002C59C881B70>,186.6284314000004,None,5.0,5.480559999999969,2.0,10.130653299998812,2.0,3.1311523000003945,<function functiondiffCt at 0x000002C59CCEC488>,<function functiondiffAt at 0x000002C59CCECF28>,<function functiondiffBt at 0x000002C59CCEC840>,,,,,,,,,,,,26,001,2022_Jul_20_1452,2leo,2021.2.3,59.9671739694624,
3,3,Plan one week of vacation,Stimuli/3A1t.jpg,Stimuli/3A2t.jpg,Stimuli/3A3t.jpg,Stimuli/3B1t.jpg,Stimuli/3B2t.jpg,Stimuli/3B3t.jpg,Stimuli/3C1t.jpg,Stimuli/3C2t.jpg,Stimuli/3C3t.jpg,0,1,1,1,,,,,,,,,,,,188.844943600001,None,189.84486120000292,None,195.84489910000048,None,"[-0.377, 0.138]","[0.306, 0.255]","[0.066, -0.395]","[-0.2, 0.346]","[0.399, -0.003]","[-0.203, -0.347]","[-0.378, -0.136]","[0.07, 0.393]","[0.304, -0.26]",201.88235460000215,13.959192640024412,19.0091401400241,22.411788640023588,"[0.2953703703703704, -0.17314814814814813, 0.11388888888888889]","[0.2212962962962963, 0.35462962962962963, 0.45]","[1, 1, 1]","[0, 0, 0]","[0, 0, 0]","[13.945274400000926, 18.995058500000596, 22.39740200000233]",0.013394340025115525,22.410625140022603,['A2'],['B1'],['C2'],['blue'],['salmon'],['yellow'],224.74380910000036,None,9.0,3.378480799998215,224.74380910000036,None,241.82660340000075,None,10.0,5.464834299997165,229.8772119000023,None,10.0,7.430881000000227,237.09607250000045,None,9.0,4.231839599997329,<function functionImportanceBt at 0x000002C59C740EA0>,<function functionImportanceCt at 0x000002C59C064F28>,<function functionImportanceAt at 0x000002C58C6281E0>,256.09318540000095,None,4.0,6.614294499999232,2.0,5.464834299997165,0.0,3.414792999999918,<function functiondiffCt at 0x000002C59CCEC620>,<function functiondiffAt at 0x000002C59CCEC598>,<function functiondiffBt at 0x000002C59CCEC510>,,,,,,,,,,,,26,001,2022_Jul_20_1452,2leo,2021.2.3,59.9671739694624,
3,7,Plan your Sunday breakfast ,Stimuli/7A1.jpg,Stimuli/7A2.jpg,Stimuli/7A3.jpg,Stimuli/7B1.jpg,Stimuli/7B2.jpg,Stimuli/7B3.jpg,Stimuli/7C1.jpg,Stimuli/7C2.jpg,Stimuli/7C3.jpg,,,,,0,0,0,7,,,,,,,,321.4694018000009,None,322.4581186000032,None,328.4580606000018,None,"[-0.378, -0.136]","[0.304, -0.26]","[0.07, 0.393]","[-0.2, 0.346]","[-0.203, -0.347]","[0.399, -0.003]","[-0.377, 0.138]","[0.066, -0.395]","[0.306, 0.255]",,37.234400900018954,29.6350273000171,35.85150330001852,"[0.4398148148148148, 0.2490740740740741, 0.03611111111111111]","[-0.03611111111111111, 0.22685185185185186, 0.31296296296296294]","[1, 1, 1]","[0, 0, 0]","[0, 0, 0]","[29.623942800000805, 35.84016580000025, 37.22355420000167]",0.01023790001636371,37.23369070001718,['A3'],['B3'],['C3'],['blue'],['salmon'],['yellow'],372.28981900000144,None,10.0,2.1294984000014665,372.28981900000144,None,376.3732545000021,None,9.0,8.264208999997209,389.9894321000029,None,10.0,4.881511399998999,384.0732382000024,None,10.0,5.215112100002443,<function functionImportanceA at 0x000002C59C881F28>,<function functionImportanceC at 0x000002C59C837378>,<function functionImportanceB at 0x000002C59CCECC80>,,,8.0,8.264208999997209,1.0,5.414242300001206,0.0,4.713596999998117,<function functiondiffB at 0x000002C59C8819D8>,<function functiondiffC at 0x000002C59C881D90>,<function functiondiffA at 0x000002C59CCECA60>,258.6264562000033,None,258.6264562000033,None,334.6018834000024,393.53952260000005,None,397.95612020000044,None,403.23934630000076,None,26,001,2022_Jul_20_1452,2leo,2021.2.3,59.9671739694624,
3,25,Plan how you want to read a book in your free time ,Stimuli/25A1.jpg,Stimuli/25A2.jpg,Stimuli/25A3.jpg,Stimuli/25B1.jpg,Stimuli/25B2.jpg,Stimuli/25B3.jpg,Stimuli/25C1.jpg,Stimuli/25C2.jpg,Stimuli/25C3.jpg,,,,,0,1,1,25,,,,,,,,407.67256650000127,None,408.6723471000005,None,414.67231390000234,None,"[-0.378, -0.136]","[0.07, 0.393]","[0.304, -0.26]","[-0.377, 0.138]","[0.306, 0.255]","[0.066, -0.395]","[-0.2, 0.346]","[0.399, -0.003]","[-0.203, -0.347]",,26.084417419999227,34.3847114199998,36.50183561999802,"[-0.3388888888888889, 0.09907407407407408, -0.16296296296296298]","[-0.08981481481481482, -0.387037037037037, -0.2935185185185185]","[1, 1, 1]","[0, 0, 0]","[0, 0, 0]","[26.07226720000108, 34.372112500001094, 36.4889957000014]",0.01172541999767418,36.50040051999895,['A1'],['B3'],['C3'],['salmon'],['blue'],['yellow'],453.1710759000016,None,10.0,2.146426400002383,453.1710759000016,None,459.6712944000028,None,10.0,2.698214399999415,455.4880218000035,None,10.0,4.214502700000594,462.7066612000017,None,10.0,2.8981944999977713,<function functionImportanceB at 0x000002C59C837EA0>,<function functionImportanceA at 0x000002C59C8376A8>,<function functionImportanceC at 0x000002C59C837598>,,,-0.0,2.698214399999415,6.0,3.414425699997082,2.0,3.2310481000022264,<function functiondiffC at 0x000002C59CCECD90>,<function functiondiffA at 0x000002C59CCEC9D8>,<function functiondiffB at 0x000002C59CCECE18>,,,,,416.2111079000024,472.2539883000027,None,465.3045146000004,None,468.804337900001,None,26,001,2022_Jul_20_1452,2leo,2021.2.3,59.9671739694624,
3,5,Plan a birthday party for your younger self when you turn eight,Stimuli/5A1.jpg,Stimuli/5A2.jpg,Stimuli/5A3.jpg,Stimuli/5B1.jpg,Stimuli/5B2.jpg,Stimuli/5B3.jpg,Stimuli/5C1.jpg,Stimuli/5C2.jpg,Stimuli/5C3.jpg,,,,,0,2,2,5,,,,,,,,474.9873340000013,None,475.98729300000196,None,481.98731990000306,None,"[0.066, -0.395]","[-0.377, 0.138]","[0.306, 0.255]","[-0.203, -0.347]","[-0.2, 0.346]","[0.399, -0.003]","[0.304, -0.26]","[-0.378, -0.136]","[0.07, 0.393]",,52.413751640018745,67.6807103400206,37.36484964002011,"[0.06851851851851852, 0.05462962962962963, -0.16296296296296298]","[0.3148148148148148, -0.3537037037037037, 0.31851851851851853]","[1, 1, 1]","[0, 0, 0]","[0, 0, 0]","[37.357007700000395, 52.406614499999705, 67.67314569999871]",0.006734040020091925,67.67950444002054,['A1'],['B2'],['C3'],['blue'],['salmon'],['yellow'],555.9185212000011,None,9.0,3.112927199999831,555.9185212000011,None,574.7012366000017,None,2.0,6.146522700000787,560.5686309000012,None,0.0,8.2310851000002,567.970481100001,None,3.0,4.765022999999928,<function functionImportanceB at 0x000002C59C837488>,<function functionImportanceC at 0x000002C59C837D90>,<function functionImportanceA at 0x000002C59C8378C8>,,,2.0,6.146522700000787,0.0,3.6313270999999077,10.0,5.398184800000308,<function functiondiffC at 0x000002C59CCECEA0>,<function functiondiffA at 0x000002C594301E18>,<function functiondiffB at 0x000002C59C837F28>,,,,,487.78162630000224,588.4678983000013,None,578.4012316000008,None,585.2681401000009,None,26,001,2022_Jul_20_1452,2leo,2021.2.3,59.9671739694624,
3,11,Plan a hike in nature on a free day,Stimuli/11A1.jpg,Stimuli/11A2.jpg,Stimuli/11A3.jpg,Stimuli/11B1.jpg,Stimuli/11B2.jpg,Stimuli/11B3.jpg,Stimuli/11C1.jpg,Stimuli/11C2.jpg,Stimuli/11C3.jpg,,,,,0,3,3,11,,,,,,,,593.0508720000034,None,594.0508334000006,None,600.0507762000016,None,"[0.066, -0.395]","[-0.377, 0.138]","[0.306, 0.255]","[-0.203, -0.347]","[-0.2, 0.346]","[0.399, -0.003]","[0.304, -0.26]","[-0.378, -0.136]","[0.07, 0.393]",,31.42296866000106,23.740602460002265,25.37419186000261,"[-0.15555555555555556, 0.021296296296296296, 0.28425925925925927]","[0.2722222222222222, 0.32407407407407407, 0.22685185185185186]","[1, 1, 1]","[0, 0, 0]","[0, 0, 0]","[23.727082600002177, 25.360361099999864, 31.409644300001673]",0.01272546000109287,31.42239456000243,['A3'],['B2'],['C3'],['blue'],['salmon'],['yellow'],633.116373300003,None,10.0,2.314259700000548,633.116373300003,None,639.1998476000008,None,10.0,2.8152135999989696,635.5498469000013,None,10.0,3.614537099998415,641.9830281000031,None,5.0,2.9143084999996063,<function functionImportanceB at 0x000002C59CCEC6A8>,<function functionImportanceA at 0x000002C59CCECBF8>,<function functionImportanceC at 0x000002C59C837400>,,,-0.0,2.8152135999989696,10.0,2.6313292999984697,0.0,2.931433500001731,<function functiondiffA at 0x000002C59C8379D8>,<function functiondiffB at 0x000002C59C837E18>,<function functiondiffC at 0x000002C59CCECD08>,,,,,601.2237642,647.5163150000008,None,650.4663507000005,None,644.8664336000002,None,26,001,2022_Jul_20_1452,2leo,2021.2.3,59.9671739694624,
3,21,Plan your sandwich for lunch,Stimuli/21A1.jpg,Stimuli/21A2.jpg,Stimuli/21A3.jpg,Stimuli/21B1.jpg,Stimuli/21B2.jpg,Stimuli/21B3.jpg,Stimuli/21C1.jpg,Stimuli/21C2.jpg,Stimuli/21C3.jpg,,,,,0,4,4,21,,,,,,,,652.6327228000009,None,653.6326669000009,None,659.6328224000026,None,"[-0.2, 0.346]","[0.399, -0.003]","[-0.203, -0.347]","[-0.378, -0.136]","[0.07, 0.393]","[0.304, -0.26]","[-0.377, 0.138]","[0.306, 0.255]","[0.066, -0.395]",,13.68050568000399,21.847238380003546,16.047537480004394,"[-0.18611111111111112, -0.34629629629629627, -0.3296296296296296]","[0.29074074074074074, 0.07037037037037037, -0.15185185185185185]","[1, 1, 1]","[0, 0, 0]","[0, 0, 0]","[13.67237380000006, 16.038902700001927, 21.83887080000204]",0.007629280004039174,21.846280280002247,['A1'],['B1'],['C1'],['blue'],['yellow'],['salmon'],683.0818287000002,None,8.0,2.763694500001293,683.0818287000002,None,685.9152881000009,None,4.0,4.764524899997923,690.6819351000013,None,10.0,1.898474300000089,692.615030500001,None,6.0,2.165469999999914,<function functionImportanceA at 0x000002C59CCEC0D0>,<function functionImportanceB at 0x000002C59EB86598>,<function functionImportanceC at 0x000002C59EB86730>,,,0.0,4.764524899997923,0.0,2.2476668000017526,10.0,2.3983980999983032,<function functiondiffB at 0x000002C59C837950>,<function functiondiffC at 0x000002C59CCECAE8>,<function functiondiffA at 0x000002C59C837048>,,,,,660.7577955000015,694.7650721000027,None,697.1650381,None,699.5481940000027,None,26,001,2022_Jul_20_1452,2leo,2021.2.3,59.9671739694624,
3,17,Plan a day in Barcelona with a friend who is new to the city,Stimuli/17A1.jpg,Stimuli/17A2.jpg,Stimuli/17A3.jpg,Stimuli/17B1.jpg,Stimuli/17B2.jpg,Stimuli/17B3.jpg,Stimuli/17C1.jpg,Stimuli/17C2.jpg,Stimuli/17C3.jpg,,,,,0,5,5,17,,,,,,,,701.314694800003,None,702.3147693000028,None,708.314830700001,None,"[0.304, -0.26]","[-0.378, -0.136]","[0.07, 0.393]","[0.066, -0.395]","[-0.377, 0.138]","[0.306, 0.255]","[-0.203, -0.347]","[-0.2, 0.346]","[0.399, -0.003]",,29.904595840002003,12.438815839999734,17.022076340002968,"[-0.32037037037037036, -0.15092592592592594, -0.287962962962963, -0.30185185185185187]","[0.1, 0.337037037037037, -0.1574074074074074, -0.1527777777777778]","[1, 1, 1, 1]","[0, 0, 0, 0]","[0, 0, 0, 0]","[12.434747900002549, 17.017773200001102, 29.350941100001364, 29.900809200000367]",0.0032569400027568918,29.90401294000185,['A2'],['B2'],['C2'],['salmon'],['yellow'],['blue'],739.8472943000015,None,10.0,2.7136406999998144,739.8472943000015,None,745.8970741000012,None,7.0,2.547868699999526,742.6305172000029,None,10.0,3.215084899999056,748.4304666000025,None,10.0,2.948233600000094,<function functionImportanceB at 0x000002C59EB86378>,<function functionImportanceA at 0x000002C59EB868C8>,<function functionImportanceC at 0x000002C59EB869D8>,,,0.0,2.547868699999526,10.0,1.7479234999991604,0.0,2.1982960999994248,<function functiondiffC at 0x000002C59EB86C80>,<function functiondiffB at 0x000002C59C837268>,<function functiondiffA at 0x000002C59C837C80>,,,,,709.4619620000012,753.8135720000028,None,751.3635438000019,None,756.0301105000035,None,26,001,2022_Jul_20_1452,2leo,2021.2.3,59.9671739694624,
3,28,Plan a one-week camping trip in Spain,Stimuli/28A1.jpg,Stimuli/28A2.jpg,Stimuli/28A3.jpg,Stimuli/28B1.jpg,Stimuli/28B2.jpg,Stimuli/28B3.jpg,Stimuli/28C1.jpg,Stimuli/28C2.jpg,Stimuli/28C3.jpg,,,,,0,6,6,28,,,,,,,,757.2965488000009,None,758.2966360999999,None,764.296598500001,None,"[0.07, 0.393]","[-0.378, -0.136]","[0.304, -0.26]","[0.399, -0.003]","[-0.2, 0.346]","[-0.203, -0.347]","[0.306, 0.255]","[-0.377, 0.138]","[0.066, -0.395]",,40.750333220003085,61.283332320002955,28.451153120004165,"[0.04537037037037037, 0.30925925925925923, -0.1638888888888889]","[-0.35, -0.22037037037037038, -0.3037037037037037]","[1, 1, 1]","[0, 0, 0]","[0, 0, 0]","[28.44899240000086, 40.74864260000322, 61.28140600000188]",0.001037120004184544,61.28239592000318,['A3'],['B3'],['C3'],['salmon'],['blue'],['yellow'],827.1781282000011,None,6.0,2.4473027999993064,827.1781282000011,None,829.6948144000016,None,10.0,3.364266399999906,837.1448176000013,None,7.0,2.698501300001226,833.0613840000005,None,0.0,4.048529400002735,<function functionImportanceA at 0x000002C59C837510>,<function functionImportanceC at 0x000002C59C837AE8>,<function functionImportanceB at 0x000002C59C837A60>,,,0.0,3.364266399999906,-0.0,1.8980746000015642,10.0,1.597856899999897,<function functiondiffC at 0x000002C59EB86D90>,<function functiondiffA at 0x000002C59EB86620>,<function functiondiffB at 0x000002C59EB862F0>,,,,,765.4106065000014,844.3609173000004,None,839.8279208000022,None,842.4447227000019,None,26,001,2022_Jul_20_1452,2leo,2021.2.3,59.9671739694624,
3,10,Plan a restaurant visit with your family on the weekend ,Stimuli/10A1.jpg,Stimuli/10A2.jpg,Stimuli/10A3.jpg,Stimuli/10B1.jpg,Stimuli/10B2.jpg,Stimuli/10B3.jpg,Stimuli/10C1.jpg,Stimuli/10C2.jpg,Stimuli/10C3.jpg,,,,,0,7,7,10,,,,,,,,845.4774026000014,None,846.4777472000023,None,852.4776143000017,None,"[0.066, -0.395]","[0.306, 0.255]","[-0.377, 0.138]","[-0.203, -0.347]","[0.399, -0.003]","[-0.2, 0.346]","[0.304, -0.26]","[0.07, 0.393]","[-0.378, -0.136]",,25.987326380010927,33.35354298001039,34.73721848001151,"[-0.3314814814814815, -0.2, -0.30648148148148147]","[0.10925925925925926, -0.3388888888888889, -0.2]","[1, 1, 1]","[0, 0, 0]","[0, 0, 0]","[25.98666400000002, 33.35278090000065, 34.73600670000087]",7.238001126097515e-05,34.73596138001085,['A3'],['B1'],['C3'],['blue'],['salmon'],['yellow'],891.6096437000015,None,10.0,1.6468772999978682,891.6096437000015,None,897.6764057,None,3.0,4.648101200000383,904.9593654000018,None,10.0,7.231841799999529,893.3095969000024,None,8.0,4.231058599998505,<function functionImportanceC at 0x000002C59EB866A8>,<function functionImportanceA at 0x000002C59C837840>,<function functionImportanceB at 0x000002C59C837D08>,,,-0.0,4.648101200000383,-0.0,2.0479338000004645,2.0,3.064636999999493,<function functiondiffC at 0x000002C59C837158>,<function functiondiffB at 0x000002C59C837730>,<function functiondiffA at 0x000002C59C837BF8>,,,,,856.405899100002,912.9760692000018,None,909.4595128000001,None,915.2925591000021,None,26,001,2022_Jul_20_1452,2leo,2021.2.3,59.9671739694624,
3,41,Plan how you want to have dinner tonight ,Stimuli/41A1.jpg,Stimuli/41A2.jpg,Stimuli/41A3.jpg,Stimuli/41B1.jpg,Stimuli/41B2.jpg,Stimuli/41B3.jpg,Stimuli/41C1.jpg,Stimuli/41C2.jpg,Stimuli/41C3.jpg,,,,,0,8,8,41,,,,,,,,916.8422219000022,None,917.8424883000007,None,923.8425004000019,None,"[0.066, -0.395]","[-0.377, 0.138]","[0.306, 0.255]","[-0.203, -0.347]","[-0.2, 0.346]","[0.399, -0.003]","[0.304, -0.26]","[-0.378, -0.136]","[0.07, 0.393]",,3.8510462600024766,17.66776616000425,13.56817606000186,"[0.06018518518518518, 0.28703703703703703, -0.21944444444444444]","[-0.38981481481481484, -0.18518518518518517, -0.35462962962962963]","[1, 1, 1]","[0, 0, 0]","[0, 0, 0]","[3.8401498000021093, 13.556750300002022, 17.656599000001734]",0.010492760004126467,17.66676166000252,['A1'],['B1'],['C1'],['blue'],['yellow'],['salmon'],943.3251066000012,None,10.0,2.5801815999984683,943.3251066000012,None,958.6248040000028,None,10.0,2.0650333000012324,956.0415819000009,None,10.0,2.5985243000031915,946.1418640000011,None,4.0,9.980852599997888,<function functionImportanceC at 0x000002C59EB867B8>,<function functionImportanceB at 0x000002C59EB86E18>,<function functionImportanceA at 0x000002C59EB86F28>,,,10.0,2.0650333000012324,-0.0,1.9147149999989779,-0.0,2.0807824000003166,<function functiondiffB at 0x000002C59EB86048>,<function functiondiffA at 0x000002C59EB86510>,<function functiondiffC at 0x000002C59C837B70>,,,,,925.1853061000002,960.6414251000024,None,964.7080423000007,None,962.7414787000016,None,26,001,2022_Jul_20_1452,2leo,2021.2.3,59.9671739694624,
3,6,Plan your wedding,Stimuli/6A1.jpg,Stimuli/6A2.jpg,Stimuli/6A3.jpg,Stimuli/6B1.jpg,Stimuli/6B2.jpg,Stimuli/6B3.jpg,Stimuli/6C1.jpg,Stimuli/6C2.jpg,Stimuli/6C3.jpg,,,,,0,9,9,6,,,,,,,,966.2909342000021,None,967.2912759000028,None,973.2913085,None,"[0.066, -0.395]","[0.306, 0.255]","[-0.377, 0.138]","[0.304, -0.26]","[0.07, 0.393]","[-0.378, -0.136]","[-0.203, -0.347]","[0.399, -0.003]","[-0.2, 0.346]",,9.275770920012292,23.79257762000998,14.04270112001177,"[0.0712962962962963, 0.3574074074074074, 0.29814814814814816]","[-0.41759259259259257, 0.001851851851851852, -0.24074074074074073]","[1, 1, 1]","[0, 0, 0]","[0, 0, 0]","[9.275115799999185, 14.041498099999444, 23.791702599999553]",0.00020842000958509743,23.791623520010035,['A1'],['B1'],['C2'],['blue'],['salmon'],['yellow'],1002.6403218000014,None,10.0,1.763494400001946,1002.6403218000014,None,1014.6092916000016,None,10.0,3.1143267000006745,1006.0903463000031,None,9.0,5.514423099997657,1011.1735410000001,None,7.0,3.43203160000121,<function functionImportanceB at 0x000002C59EB86268>,<function functionImportanceC at 0x000002C59EB86EA0>,<function functionImportanceA at 0x000002C59EB86D08>,,,6.0,3.1143267000006745,0.0,2.9143995999984327,2.0,3.297802599998249,<function functiondiffC at 0x000002C59EB86950>,<function functiondiffB at 0x000002C59EB86400>,<function functiondiffA at 0x000002C59EB86488>,,,,,978.3839010000011,1022.0912063000033,None,1016.9568548000025,None,1025.2898858000008,None,26,001,2022_Jul_20_1452,2leo,2021.2.3,59.9671739694624,
3,18,Plan your Saturday night ,Stimuli/18A1.jpg,Stimuli/18A2.jpg,Stimuli/18A3.jpg,Stimuli/18B1.jpg,Stimuli/18B2.jpg,Stimuli/18B3.jpg,Stimuli/18C1.jpg,Stimuli/18C2.jpg,Stimuli/18C3.jpg,,,,,0,10,10,18,,,,,,,,1027.4395121000016,None,1028.439733000003,None,1034.4398342000022,None,"[-0.378, -0.136]","[0.304, -0.26]","[0.07, 0.393]","[-0.377, 0.138]","[0.066, -0.395]","[0.306, 0.255]","[-0.2, 0.346]","[-0.203, -0.347]","[0.399, -0.003]",,28.89041802000429,16.724473120004404,32.29058212000382,"[0.06666666666666667, -0.34629629629629627, -0.1574074074074074]","[-0.36574074074074076, -0.13240740740740742, 0.3592592592592593]","[1, 1, 1]","[0, 0, 0]","[0, 0, 0]","[16.719278000000486, 28.88556139999855, 32.28520260000005]",0.00441332000264083,32.28957532000277,['A1'],['B2'],['C1'],['yellow'],['blue'],['salmon'],1068.321837200001,None,10.0,4.046804199999315,1068.321837200001,None,1072.471977600002,None,10.0,2.9960447999983444,1075.4549898000005,None,9.0,2.0652407000015955,1077.588482500003,None,0.0,4.931717899999057,<function functionImportanceA at 0x000002C59EB86158>,<function functionImportanceB at 0x000002C5A0097730>,<function functionImportanceC at 0x000002C5A00976A8>,,,3.0,2.9960447999983444,-0.0,1.9646187999969698,0.0,3.2812510000003385,<function functiondiffC at 0x000002C5A0097950>,<function functiondiffB at 0x000002C59EB86AE8>,<function functiondiffA at 0x000002C59EB861E0>,,,,,1035.5525944,1087.6049893000018,None,1082.4550230000023,None,1090.921471900001,None,26,001,2022_Jul_20_1452,2leo,2021.2.3,59.9671739694624,
3,16,Plan a delicious cake for the birthday of a friend,Stimuli/16A1.jpg,Stimuli/16A2.jpg,Stimuli/16A3.jpg,Stimuli/16B1.jpg,Stimuli/16B2.jpg,Stimuli/16B3.jpg,Stimuli/16C1.jpg,Stimuli/16C2.jpg,Stimuli/16C3.jpg,,,,,0,11,11,16,,,,,,,,1092.4044976000005,None,1093.404611500002,None,1099.4046232,None,"[0.399, -0.003]","[-0.2, 0.346]","[-0.203, -0.347]","[0.306, 0.255]","[-0.377, 0.138]","[0.066, -0.395]","[0.07, 0.393]","[-0.378, -0.136]","[0.304, -0.26]",,21.404306900003576,30.504362600004242,28.871378400002868,"[-0.13425925925925927, -0.2861111111111111, -0.32037037037037036, 0.30185185185185187]","[0.3074074074074074, -0.08148148148148149, -0.08055555555555556, 0.2796296296296296]","[1, 1, 1, 1]","[0, 0, 0, 0]","[0, 0, 0, 0]","[21.391078600001492, 28.42421590000231, 28.85758160000114, 30.49094250000053]",0.012718000005406793,30.50343100000464,['A2'],['B1'],['C2'],['salmon'],['blue'],['yellow'],1131.7868800000033,None,10.0,2.1299959999996645,1131.7868800000033,None,1133.9867712000014,None,10.0,2.9803843000008783,1137.203557500001,None,0.0,2.1319844000026933,1139.2033732000018,None,0.0,1.5486601000011433,<function functionImportanceA at 0x000002C5A0097D90>,<function functionImportanceB at 0x000002C5A0097510>,<function functionImportanceC at 0x000002C5A0097598>,,,-0.0,2.9803843000008783,4.0,3.8808303000005253,0.0,2.1478757000004407,<function functiondiffA at 0x000002C59C837620>,<function functiondiffC at 0x000002C59EB86840>,<function functiondiffB at 0x000002C59EB860D0>,,,,,1100.8266482,1147.0533520000026,None,1144.5866881000002,None,1140.670159600002,None,26,001,2022_Jul_20_1452,2leo,2021.2.3,59.9671739694624,
3,32,Plan how you want to relax after a workday,Stimuli/32A1.jpg,Stimuli/32A2.jpg,Stimuli/32A3.jpg,Stimuli/32B1.jpg,Stimuli/32B2.jpg,Stimuli/32B3.jpg,Stimuli/32C1.jpg,Stimuli/32C2.jpg,Stimuli/32C3.jpg,,,,,0,12,12,32,,,,,,,,1148.686307400003,None,1149.686404,None,1155.6864780000033,None,"[-0.203, -0.347]","[0.399, -0.003]","[-0.2, 0.346]","[0.304, -0.26]","[0.07, 0.393]","[-0.378, -0.136]","[0.066, -0.395]","[0.306, 0.255]","[-0.377, 0.138]",,12.612265380008466,15.978939580007136,19.812376880006923,"[-0.19444444444444445, 0.325, 0.27037037037037037]","[0.28703703703703703, -0.29074074074074074, 0.22870370370370371]","[1, 1, 1]","[0, 0, 0]","[0, 0, 0]","[12.595584800001234, 15.962163500000315, 19.7952600000026]",0.01607588000842952,19.811266680007975,['A3'],['B1'],['C2'],['salmon'],['blue'],['yellow'],1178.9356407000014,None,10.0,1.7305337999969197,1178.9356407000014,None,1190.7520811000031,None,10.0,3.931851099998312,1185.5021645000015,None,8.0,4.931771399998979,1180.7357396000007,None,6.0,3.9645200000013574,<function functionImportanceC at 0x000002C5A0097488>,<function functionImportanceB at 0x000002C5A0097620>,<function functionImportanceA at 0x000002C5A0097A60>,,,0.0,3.931851099998312,2.0,3.5974896000006993,0.0,1.9811967999994522,<function functiondiffA at 0x000002C5A00977B8>,<function functiondiffB at 0x000002C5A00978C8>,<function functiondiffC at 0x000002C5A0097F28>,,,,,1158.673161300001,1197.3683722000023,None,1199.1853630000005,None,1193.9212512000013,None,26,001,2022_Jul_20_1452,2leo,2021.2.3,59.9671739694624,
3,23,Plan a city trip,Stimuli/23A1.jpg,Stimuli/23A2.jpg,Stimuli/23A3.jpg,Stimuli/23B1.jpg,Stimuli/23B2.jpg,Stimuli/23B3.jpg,Stimuli/23C1.jpg,Stimuli/23C2.jpg,Stimuli/23C3.jpg,,,,,0,13,13,23,,,,,,,,1200.734762400003,None,1201.7352462000017,None,1207.7349949000018,None,"[0.304, -0.26]","[-0.378, -0.136]","[0.07, 0.393]","[-0.203, -0.347]","[-0.2, 0.346]","[0.399, -0.003]","[0.066, -0.395]","[-0.377, 0.138]","[0.306, 0.255]",,23.11864819999755,21.06907659999706,25.035827099996823,"[0.37777777777777777, -0.3296296296296296, -0.28888888888888886]","[-0.05, -0.1398148148148148, 0.08425925925925926]","[1, 1, 1]","[0, 0, 0]","[0, 0, 0]","[21.057929200000217, 23.10781069999939, 25.024517699999706]",0.010303299997758586,25.034558899995318,['A2'],['B3'],['C2'],['blue'],['yellow'],['salmon'],1234.4007950000014,None,10.0,1.713769300000422,1234.4007950000014,None,1236.2009357000024,None,5.0,4.031024500000058,1242.3507836000026,None,10.0,2.1984531999987666,1240.2673962000008,None,4.0,2.0817196000025433,<function functionImportanceA at 0x000002C59EB86BF8>,<function functionImportanceC at 0x000002C5A0097840>,<function functionImportanceB at 0x000002C59EB86A60>,,,-0.0,4.031024500000058,-0.0,2.5810669000020425,0.0,1.8309984000006807,<function functiondiffA at 0x000002C5A0097E18>,<function functiondiffB at 0x000002C5A0097D08>,<function functiondiffC at 0x000002C5A0097268>,,,,,1208.8912993000013,1247.117387000002,None,1248.9670373000008,None,1244.5174392000008,None,26,001,2022_Jul_20_1452,2leo,2021.2.3,59.9671739694624,
3,22,Plan a beach day with your friends,Stimuli/22A1.jpg,Stimuli/22A2.jpg,Stimuli/22A3.jpg,Stimuli/22B1.jpg,Stimuli/22B2.jpg,Stimuli/22B3.jpg,Stimuli/22C1.jpg,Stimuli/22C2.jpg,Stimuli/22C3.jpg,,,,,0,14,14,22,,,,,,,,1250.5835005000008,None,1251.583760100002,None,1257.5838354000007,None,"[-0.203, -0.347]","[-0.2, 0.346]","[0.399, -0.003]","[0.304, -0.26]","[-0.378, -0.136]","[0.07, 0.393]","[0.066, -0.395]","[-0.377, 0.138]","[0.306, 0.255]",,24.250846179998916,16.95115627999985,20.984761280000384,"[-0.32314814814814813, 0.07222222222222222, 0.3990740740740741]","[-0.12685185185185185, -0.337037037037037, -0.03425925925925926]","[1, 1, 1]","[0, 0, 0]","[0, 0, 0]","[16.940910900000745, 20.974405200002366, 24.240792299999157]",0.00944037999943248,24.249962779998896,['A3'],['B2'],['C1'],['blue'],['yellow'],['salmon'],1283.4328596000014,None,10.0,1.8969835999996576,1283.4328596000014,None,1288.649488500003,None,-0.0,2.2316510999989987,1290.882789000003,None,5.0,2.648354400000244,1285.4164522000028,None,-0.0,3.2310027000021364,<function functionImportanceC at 0x000002C5A0495158>,<function functionImportanceA at 0x000002C5A00979D8>,<function functionImportanceB at 0x000002C5A0495A60>,,,0.0,2.2316510999989987,0.0,2.330948399998306,0.0,2.1982858999981545,<function functiondiffA at 0x000002C5A0097400>,<function functiondiffC at 0x000002C5A04958C8>,<function functiondiffB at 0x000002C5A00972F0>,,,,,1258.708279800001,1297.8327616000024,None,1295.8827017000003,None,1293.5328692000003,None,26,001,2022_Jul_20_1452,2leo,2021.2.3,59.9671739694624,
3,2,Plan which ingredients you want to use for cooking dinner today,Stimuli/2A1.jpg,Stimuli/2A2.jpg,Stimuli/2A3.jpg,Stimuli/2B1.jpg,Stimuli/2B2.jpg,Stimuli/2B3.jpg,Stimuli/2C1.jpg,Stimuli/2C2.jpg,Stimuli/2C3.jpg,,,,,0,15,15,2,,,,,,,,1303.4992456,None,1304.4992010000024,None,1310.4990049000007,None,"[0.304, -0.26]","[0.07, 0.393]","[-0.378, -0.136]","[-0.203, -0.347]","[0.399, -0.003]","[-0.2, 0.346]","[0.066, -0.395]","[0.306, 0.255]","[-0.377, 0.138]",,17.164718600015476,8.131680000016786,15.832346500013955,"[-0.21296296296296297, 0.3037037037037037, 0.27685185185185185]","[-0.37962962962962965, 0.2712962962962963, -0.2722222222222222]","[1, 1, 1]","[0, 0, 0]","[0, 0, 0]","[8.122846900001605, 15.823208600002545, 17.156186300002446]",0.008103900014248211,17.164107900014642,['A1'],['B1'],['C2'],['yellow'],['blue'],['salmon'],1334.181463300003,None,10.0,2.146956399999908,1334.181463300003,None,1347.0311305000032,None,4.0,3.481479699999909,1343.8001532000017,None,10.0,5.38164340000003,1336.9817124,None,2.0,4.1309715999996115,<function functionImportanceC at 0x000002C5A0495E18>,<function functionImportanceB at 0x000002C5A0495EA0>,<function functionImportanceA at 0x000002C5A0495730>,,,-0.0,3.481479699999909,4.0,2.4310877000025357,10.0,2.697856099999626,<function functiondiffC at 0x000002C5A0495B70>,<function functiondiffB at 0x000002C5A04951E0>,<function functiondiffA at 0x000002C5A0495620>,,,,,1316.562230200001,1352.9312312000002,None,1349.5812883000035,None,1355.1144766000034,None,26,001,2022_Jul_20_1452,2leo,2021.2.3,59.9671739694624,
3,8,Plan the interior of your living-room ,Stimuli/8A1.jpg,Stimuli/8A2.jpg,Stimuli/8A3.jpg,Stimuli/8B1.jpg,Stimuli/8B2.jpg,Stimuli/8B3.jpg,Stimuli/8C1.jpg,Stimuli/8C2.jpg,Stimuli/8C3.jpg,,,,,0,16,16,8,,,,,,,,1356.764009800001,None,1357.7644198000016,None,1363.7646232000006,None,"[0.07, 0.393]","[0.304, -0.26]","[-0.378, -0.136]","[0.306, 0.255]","[0.066, -0.395]","[-0.377, 0.138]","[0.399, -0.003]","[-0.203, -0.347]","[-0.2, 0.346]",,12.253663340012281,17.303715840011137,32.4038184400124,"[0.025, 0.08611111111111111, -0.21388888888888888]","[0.4166666666666667, -0.40185185185185185, 0.31666666666666665]","[1, 1, 1]","[0, 0, 0]","[0, 0, 0]","[12.248608099998819, 17.298311799997464, 32.39804149999691]",0.0046060400127316825,32.402379940012906,['A1'],['B2'],['C3'],['salmon'],['yellow'],['blue'],1401.4965140000022,None,6.0,1.8802552999986801,1401.4965140000022,None,1403.4633114000026,None,10.0,3.5974234999994223,1408.946564400001,None,10.0,4.281552299999021,1413.2990718,None,10.0,3.915351700001338,<function functionImportanceA at 0x000002C5A0097048>,<function functionImportanceB at 0x000002C5A0097B70>,<function functionImportanceC at 0x000002C5A00970D0>,,,10.0,3.5974234999994223,0.0,2.231316199999128,2.0,3.5470803000025626,<function functiondiffB at 0x000002C5A0495F28>,<function functiondiffC at 0x000002C5A04959D8>,<function functiondiffA at 0x000002C5A04956A8>,,,,,1368.6311948000002,1415.7796671000033,None,1419.3958622000027,None,1421.0627949000009,None,26,001,2022_Jul_20_1452,2leo,2021.2.3,59.9671739694624,
3,39,Plan what kind of watch you want to buy,Stimuli/39A1.jpg,Stimuli/39A2.jpg,Stimuli/39A3.jpg,Stimuli/39B1.jpg,Stimuli/39B2.jpg,Stimuli/39B3.jpg,Stimuli/39C1.jpg,Stimuli/39C2.jpg,Stimuli/39C3.jpg,,,,,0,17,17,39,,,,,,,,1422.8123113000001,None,1423.8127232000006,None,1429.812565600001,None,"[0.306, 0.255]","[0.066, -0.395]","[-0.377, 0.138]","[0.07, 0.393]","[0.304, -0.26]","[-0.378, -0.136]","[0.399, -0.003]","[-0.203, -0.347]","[-0.2, 0.346]",,19.43635636000181,11.2370922600021,7.703914760000771,"[-0.15833333333333333, 0.2518518518518518, 0.25092592592592594]","[-0.3768518518518518, -0.19722222222222222, 0.18796296296296297]","[1, 1, 1]","[0, 0, 0]","[0, 0, 0]","[7.692069099997752, 11.22549589999835, 19.425102899997]",0.010836560002644546,19.435682160001306,['A1'],['B2'],['C2'],['blue'],['yellow'],['salmon'],1450.8952143000024,None,4.0,1.846980700000131,1450.8952143000024,None,1456.4953000000023,None,0.0,1.631989599998633,1452.8285789000001,None,10.0,3.6642943999977433,1458.245217300002,None,-0.0,1.8984631999992416,<function functionImportanceB at 0x000002C5A0495268>,<function functionImportanceA at 0x000002C5A00971E0>,<function functionImportanceC at 0x000002C5A0495510>,,,-0.0,1.631989599998633,3.0,2.431451399999787,1.0,3.0967443000008643,<function functiondiffB at 0x000002C5A04952F0>,<function functiondiffA at 0x000002C59EB86B70>,<function functiondiffC at 0x000002C5A0097BF8>,,,,,1430.9838673000013,1460.0284474,None,1465.5948162000022,None,1463.1450695000021,None,26,001,2022_Jul_20_1452,2leo,2021.2.3,59.9671739694624,
3,33,Plan the items to decorate your Christmas tree,Stimuli/33A1.jpg,Stimuli/33A2.jpg,Stimuli/33A3.jpg,Stimuli/33B1.jpg,Stimuli/33B2.jpg,Stimuli/33B3.jpg,Stimuli/33C1.jpg,Stimuli/33C2.jpg,Stimuli/33C3.jpg,,,,,0,18,18,33,,,,,,,,1466.9111691000035,None,1467.9113856000004,None,1473.911518500001,None,"[-0.378, -0.136]","[0.07, 0.393]","[0.304, -0.26]","[-0.377, 0.138]","[0.306, 0.255]","[0.066, -0.395]","[-0.2, 0.346]","[0.399, -0.003]","[-0.203, -0.347]",,33.317722740001045,36.06806954000058,28.934883940000873,"[0.36203703703703705, 0.032407407407407406, 0.2953703703703704]","[0.010185185185185186, 0.3148148148148148, 0.24351851851851852]","[1, 1, 1]","[0, 0, 0]","[0, 0, 0]","[28.929883900000277, 33.3132211000011, 36.06333649999942]",0.003973940001742449,36.066748040000675,['A2'],['B2'],['C2'],['yellow'],['blue'],['salmon'],1512.1100491000034,None,10.0,2.113192099997832,1512.1100491000034,None,1514.7937106000027,None,10.0,2.8811400000013236,1518.8601982,None,0.0,1.7315472999980557,1517.2103060000009,None,10.0,1.6652114999997139,<function functionImportanceA at 0x000002C5A0097158>,<function functionImportanceC at 0x000002C5A20F9048>,<function functionImportanceB at 0x000002C5A0495598>,,,3.0,2.8811400000013236,-0.0,1.5812049000014667,1.0,2.564214699999866,<function functiondiffB at 0x000002C5A0495378>,<function functiondiffC at 0x000002C5A20F9620>,<function functiondiffA at 0x000002C5A0097EA0>,,,,,1475.577564500003,1520.593536700002,None,1523.1767873000026,None,1525.1599485000006,None,26,001,2022_Jul_20_1452,2leo,2021.2.3,59.9671739694624,
3,24,Plan your Monday morning on a workday ,Stimuli/24A1.jpg,Stimuli/24A2.jpg,Stimuli/24A3.jpg,Stimuli/24B1.jpg,Stimuli/24B2.jpg,Stimuli/24B3.jpg,Stimuli/24C1.jpg,Stimuli/24C2.jpg,Stimuli/24C3.jpg,,,,,0,19,19,24,,,,,,,,1526.126516100001,None,1527.126639000002,None,1533.126610700001,None,"[-0.2, 0.346]","[-0.203, -0.347]","[0.399, -0.003]","[-0.377, 0.138]","[0.066, -0.395]","[0.306, 0.255]","[-0.378, -0.136]","[0.304, -0.26]","[0.07, 0.393]",,7.1689222200002405,20.28559172000314,24.96866521999982,"[0.46574074074074073, 0.08333333333333333, -0.3148148148148148]","[0.002777777777777778, -0.3768518518518518, -0.12222222222222222]","[1, 1, 1]","[0, 0, 0]","[0, 0, 0]","[7.158328500001517, 20.274870699999155, 24.957687199999782]",0.009956220001186011,24.96755702000155,['A3'],['B2'],['C1'],['salmon'],['blue'],['yellow'],1559.6756002000002,None,10.0,2.0139213999973435,1559.6756002000002,None,1568.2756714000025,None,10.0,1.6987470999993093,1565.0758236000001,None,10.0,3.1648948000001837,1561.7591513000007,None,10.0,3.314449900000909,<function functionImportanceC at 0x000002C5A20F9AE8>,<function functionImportanceB at 0x000002C5A20F92F0>,<function functionImportanceA at 0x000002C5A20F9BF8>,,,7.0,1.6987470999993093,-0.0,2.1808486000008998,-0.0,1.964592400003312,<function functiondiffA at 0x000002C5A0097AE8>,<function functiondiffB at 0x000002C5A0495950>,<function functiondiffC at 0x000002C5A20F9950>,,,,,1534.2336411000033,1572.1588999000014,None,1574.1421935000035,None,1569.9588808000008,None,26,001,2022_Jul_20_1452,2leo,2021.2.3,59.9671739694624,
3,36,Plan your shopping for new clothing,Stimuli/36A1.jpg,Stimuli/36A2.jpg,Stimuli/36A3.jpg,Stimuli/36B1.jpg,Stimuli/36B2.jpg,Stimuli/36B3.jpg,Stimuli/36C1.jpg,Stimuli/36C2.jpg,Stimuli/36C3.jpg,,,,,0,20,20,36,,,,,,,,1575.3083296000004,None,1576.308745600003,None,1582.308710600002,None,"[0.399, -0.003]","[-0.203, -0.347]","[-0.2, 0.346]","[0.07, 0.393]","[0.304, -0.26]","[-0.378, -0.136]","[0.306, 0.255]","[0.066, -0.395]","[-0.377, 0.138]",,22.97609692000333,21.192899420002504,9.726908620003087,"[0.3101851851851852, 0.30833333333333335, -0.10648148148148148, -0.15462962962962962]","[0.2212962962962963, -0.1925925925925926, -0.3453703703703704, -0.33796296296296297]","[1, 1, 1, 1]","[0, 0, 0, 0]","[0, 0, 0, 0]","[9.71224390000134, 21.178451299998414, 22.578555199997936, 22.961954300000798]",0.013640920002217172,22.975269820002723,['A2'],['B2'],['C1'],['blue'],['yellow'],['salmon'],1606.8578357000006,None,9.0,1.9791255000018282,1606.8578357000006,None,1611.8412572000016,None,-0.0,2.3150814000000537,1614.1577346000013,None,0.0,1.73134840000057,1608.9077877000018,None,8.0,2.914858899999672,<function functionImportanceC at 0x000002C5A20F9E18>,<function functionImportanceA at 0x000002C5A20F9F28>,<function functionImportanceB at 0x000002C5A20F97B8>,,,-0.0,2.3150814000000537,5.0,2.5331779000007373,4.0,2.68125350000264,<function functiondiffA at 0x000002C5A20F98C8>,<function functiondiffC at 0x000002C5A0495488>,<function functiondiffB at 0x000002C5A20F9158>,,,,,1583.4130573000002,1620.240849400001,None,1618.4409709000029,None,1615.874182200001,None,26,001,2022_Jul_20_1452,2leo,2021.2.3,59.9671739694624,
3,12,Plan the ingredients to mix yourself a cocktail,Stimuli/12A1.jpg,Stimuli/12A2.jpg,Stimuli/12A3.jpg,Stimuli/12B1.jpg,Stimuli/12B2.jpg,Stimuli/12B3.jpg,Stimuli/12C1.jpg,Stimuli/12C2.jpg,Stimuli/12C3.jpg,,,,,0,21,21,12,,,,,,,,1622.4404228000021,None,1623.4409431000022,None,1629.4406534000009,None,"[0.066, -0.395]","[0.306, 0.255]","[-0.377, 0.138]","[0.304, -0.26]","[0.07, 0.393]","[-0.378, -0.136]","[-0.203, -0.347]","[0.399, -0.003]","[-0.2, 0.346]",,26.396779380000226,22.09694858000148,20.38077978000001,"[-0.21666666666666667, 0.3111111111111111, 0.08148148148148149]","[0.3287037037037037, -0.3175925925925926, -0.3851851851851852]","[1, 1, 1]","[0, 0, 0]","[0, 0, 0]","[20.372068299999228, 22.088747999998304, 26.38886629999979]",0.0074828800024988595,26.39607748000344,['A1'],['B1'],['C3'],['blue'],['salmon'],['yellow'],1657.4401173000006,None,10.0,1.9135621999994328,1657.4401173000006,None,1663.289834500003,None,10.0,1.9484890999992786,1661.8065263000026,None,10.0,1.4470513000014762,1659.4233005000024,None,10.0,2.3643833000023733,<function functionImportanceC at 0x000002C5A20F9730>,<function functionImportanceB at 0x000002C5A0495BF8>,<function functionImportanceA at 0x000002C5A0495048>,,,9.0,1.9484890999992786,0.0,2.3980185000000347,0.0,2.2813086999994994,<function functiondiffB at 0x000002C5A20F9D08>,<function functiondiffA at 0x000002C5A20F90D0>,<function functiondiffC at 0x000002C5A20F9378>,,,,,1630.5659059000027,1665.2064812000026,None,1669.9230105000024,None,1667.5063504000027,None,26,001,2022_Jul_20_1452,2leo,2021.2.3,59.9671739694624,
3,19,Plan how you want your garden to look like,Stimuli/19A1.jpg,Stimuli/19A2.jpg,Stimuli/19A3.jpg,Stimuli/19B1.jpg,Stimuli/19B2.jpg,Stimuli/19B3.jpg,Stimuli/19C1.jpg,Stimuli/19C2.jpg,Stimuli/19C3.jpg,,,,,0,22,22,19,,,,,,,,1671.555802400002,None,1672.5561412000025,None,1678.5561356000035,None,"[-0.2, 0.346]","[-0.203, -0.347]","[0.399, -0.003]","[-0.377, 0.138]","[0.066, -0.395]","[0.306, 0.255]","[-0.378, -0.136]","[0.304, -0.26]","[0.07, 0.393]",,18.374046940010885,20.624510740013648,6.841703840011178,"[-0.30833333333333335, -0.1398148148148148, 0.0962962962962963]","[-0.12407407407407407, -0.2851851851851852, -0.40925925925925927]","[1, 1, 1]","[0, 0, 0]","[0, 0, 0]","[6.840434099998674, 18.373234499998944, 20.623438599999645]",0.0003108400123892352,20.623454040010984,['A2'],['B2'],['C1'],['yellow'],['blue'],['salmon'],1703.2552313000015,None,6.0,1.9472481000011612,1703.2552313000015,None,1712.2052724000023,None,10.0,1.4151369999999588,1710.5716677000019,None,10.0,2.698520300000382,1706.6236996000007,None,10.0,4.180687399999442,<function functionImportanceC at 0x000002C5A0495AE8>,<function functionImportanceB at 0x000002C5A0097C80>,<function functionImportanceA at 0x000002C5A20F9A60>,,,0.0,1.4151369999999588,10.0,1.4480057999971905,8.0,2.89767589999974,<function functiondiffB at 0x000002C5A25C3A60>,<function functiondiffC at 0x000002C5A25C3048>,<function functiondiffA at 0x000002C5A20F9840>,,,,,1682.1664175000005,1713.838318500002,None,1716.8883760000026,None,1719.0215745000023,None,26,001,2022_Jul_20_1452,2leo,2021.2.3,59.9671739694624,
3,27,Plan what festival to visit with your friends,Stimuli/27A1.jpg,Stimuli/27A2.jpg,Stimuli/27A3.jpg,Stimuli/27B1.jpg,Stimuli/27B2.jpg,Stimuli/27B3.jpg,Stimuli/27C1.jpg,Stimuli/27C2.jpg,Stimuli/27C3.jpg,,,,,0,23,23,27,,,,,,,,1719.987896300001,None,1720.9882798000035,None,1726.9882283000006,None,"[0.066, -0.395]","[-0.377, 0.138]","[0.306, 0.255]","[0.304, -0.26]","[-0.378, -0.136]","[0.07, 0.393]","[-0.203, -0.347]","[-0.2, 0.346]","[0.399, -0.003]",,18.354559880001034,27.53825338000388,3.938812680004048,"[-0.18425925925925926, 0.34814814814814815, 0.32407407407407407]","[0.275, 0.2351851851851852, -0.21296296296296297]","[1, 1, 1]","[0, 0, 0]","[0, 0, 0]","[3.926521800000046, 18.342670400001225, 27.526289400000678]",0.011274980002781376,27.536802980001085,['A3'],['B1'],['C2'],['salmon'],['yellow'],['blue'],1756.1206183000031,None,8.0,2.163525700001628,1756.1206183000031,None,1761.5206969000028,None,10.0,1.6818161999981385,1758.3707493000002,None,10.0,3.1644282000015664,1763.2869763000017,None,10.0,1.7485304000001634,<function functionImportanceB at 0x000002C5A25C3400>,<function functionImportanceA at 0x000002C5A0097378>,<function functionImportanceC at 0x000002C5A25C3620>,,,0.0,1.6818161999981385,3.0,3.330877300002612,4.0,1.6811612999990757,<function functiondiffA at 0x000002C5A20F9268>,<function functiondiffB at 0x000002C5A25C3B70>,<function functiondiffC at 0x000002C5A25C3488>,,,,,1728.1105580000003,1768.3202820000006,None,1770.020343600001,None,1764.9705123000022,None,26,001,2022_Jul_20_1452,2leo,2021.2.3,59.9671739694624,
3,34,Plan what car you want to buy,Stimuli/34A1.jpg,Stimuli/34A2.jpg,Stimuli/34A3.jpg,Stimuli/34B1.jpg,Stimuli/34B2.jpg,Stimuli/34B3.jpg,Stimuli/34C1.jpg,Stimuli/34C2.jpg,Stimuli/34C3.jpg,,,,,0,24,24,34,,,,,,,,1771.1703156000003,None,1772.170402300002,None,1778.1702821,None,"[-0.377, 0.138]","[0.306, 0.255]","[0.066, -0.395]","[-0.2, 0.346]","[0.399, -0.003]","[-0.203, -0.347]","[-0.378, -0.136]","[0.07, 0.393]","[0.304, -0.26]",,10.476016840009834,30.559088140009408,13.69303514000785,"[0.3453703703703704, -0.33425925925925926, -0.15833333333333333]","[0.22777777777777777, -0.1175925925925926, 0.36944444444444446]","[1, 1, 1]","[0, 0, 0]","[0, 0, 0]","[10.468637399997533, 13.685223499996937, 30.551524399998016]",0.006874440008687088,30.558158040010312,['A2'],['B1'],['C1'],['yellow'],['salmon'],['blue'],1812.2856580000007,None,9.0,2.3634143000017502,1812.2856580000007,None,1821.635686200003,None,10.0,2.9149778000028164,1824.5356401000026,None,0.0,2.481754299999011,1814.719393200001,None,10.0,5.914217300000018,<function functionImportanceC at 0x000002C5A25C31E0>,<function functionImportanceA at 0x000002C5A20F9510>,<function functionImportanceB at 0x000002C5A25C37B8>,,,0.0,2.9149778000028164,-0.0,2.0643989000018337,10.0,2.4146709000015107,<function functiondiffB at 0x000002C5A25C3D08>,<function functiondiffC at 0x000002C5A25C3158>,<function functiondiffA at 0x000002C5A25C3C80>,,,,,1781.2659301000022,1826.2857025000012,None,1828.469047900002,None,1830.535409,None,26,001,2022_Jul_20_1452,2leo,2021.2.3,59.9671739694624,
3,14,Plan your own Pizza for dinner,Stimuli/14A1.jpg,Stimuli/14A2.jpg,Stimuli/14A3.jpg,Stimuli/14B1.jpg,Stimuli/14B2.jpg,Stimuli/14B3.jpg,Stimuli/14C1.jpg,Stimuli/14C2.jpg,Stimuli/14C3.jpg,,,,,0,25,25,14,,,,,,,,1831.7854277000006,None,1832.785200000002,None,1838.7853693000034,None,"[0.066, -0.395]","[-0.377, 0.138]","[0.306, 0.255]","[-0.203, -0.347]","[-0.2, 0.346]","[0.399, -0.003]","[0.304, -0.26]","[-0.378, -0.136]","[0.07, 0.393]",,14.315002800001821,9.932194900000468,17.348635000002105,"[0.4601851851851852, 0.34629629629629627, 0.2722222222222222]","[-0.006481481481481481, 0.2657407407407407, -0.2972222222222222]","[1, 1, 1]","[0, 0, 0]","[0, 0, 0]","[9.922969300001569, 14.30608139999822, 17.339256600000226]",0.008262800001830328,17.347311000001355,['A3'],['B3'],['C1'],['blue'],['yellow'],['salmon'],1857.7679297000032,None,10.0,1.7468886999995448,1857.7679297000032,None,1859.6178999000003,None,10.0,2.93128280000019,1864.4014423000008,None,10.0,1.5649785999994492,1862.5178467000005,None,-0.0,1.781804900001589,<function functionImportanceA at 0x000002C5A25C3840>,<function functionImportanceC at 0x000002C5A25C3AE8>,<function functionImportanceB at 0x000002C5A25C3BF8>,,,0.0,2.93128280000019,10.0,1.8978691999982402,3.0,2.7315068999996583,<function functiondiffC at 0x000002C5A20F96A8>,<function functiondiffA at 0x000002C5A25C3378>,<function functiondiffB at 0x000002C5A20F9400>,,,,,1839.9433968000012,1870.1344628000006,None,1865.884673800003,None,1868.1845944000015,None,26,001,2022_Jul_20_1452,2leo,2021.2.3,59.9671739694624,
3,35,Plan how you want to do your grocery shopping ,Stimuli/35A1.jpg,Stimuli/35A2.jpg,Stimuli/35A3.jpg,Stimuli/35B1.jpg,Stimuli/35B2.jpg,Stimuli/35B3.jpg,Stimuli/35C1.jpg,Stimuli/35C2.jpg,Stimuli/35C3.jpg,,,,,0,26,26,35,,,,,,,,1872.3675300000032,None,1873.3675594000015,None,1879.367522200002,None,"[0.399, -0.003]","[-0.203, -0.347]","[-0.2, 0.346]","[0.306, 0.255]","[0.066, -0.395]","[-0.377, 0.138]","[0.07, 0.393]","[0.304, -0.26]","[-0.378, -0.136]",,20.6878347799975,21.92119167999772,12.855143979999411,"[-0.3398148148148148, -0.16296296296296298, 0.3731481481481482]","[-0.08055555555555556, -0.29444444444444445, 0.30925925925925923]","[1, 1, 1]","[0, 0, 0]","[0, 0, 0]","[12.842282499997964, 20.675614899999346, 21.908765399999538]",0.011717379999026889,21.920388679998723,['A2'],['B1'],['C3'],['yellow'],['blue'],['salmon'],1902.9667611000004,None,10.0,1.7973113999978523,1902.9667611000004,None,1908.0668256000026,None,10.0,1.565069099997345,1909.6999614000015,None,10.0,1.3990684000018518,1904.8335915000025,None,6.0,3.1977191000005405,<function functionImportanceC at 0x000002C5A296A620>,<function functionImportanceA at 0x000002C5A20F9B70>,<function functionImportanceB at 0x000002C5A25C3D90>,,,5.0,1.565069099997345,8.0,1.931048099999316,2.0,4.062465599999996,<function functiondiffB at 0x000002C5A25C3F28>,<function functiondiffC at 0x000002C5A25C30D0>,<function functiondiffA at 0x000002C5A20F91E0>,,,,,1880.574099700003,1911.0333967000006,None,1915.1000042000014,None,1918.2164870000015,None,26,001,2022_Jul_20_1452,2leo,2021.2.3,59.9671739694624,
3,9,Plan a picnic with friends,Stimuli/9A1.jpg,Stimuli/9A2.jpg,Stimuli/9A3.jpg,Stimuli/9B1.jpg,Stimuli/9B2.jpg,Stimuli/9B3.jpg,Stimuli/9C1.jpg,Stimuli/9C2.jpg,Stimuli/9C3.jpg,,,,,0,27,27,9,,,,,,,,1919.6664569000022,None,1920.6663453,None,1926.6664102000032,None,"[0.306, 0.255]","[0.066, -0.395]","[-0.377, 0.138]","[0.399, -0.003]","[-0.203, -0.347]","[-0.2, 0.346]","[0.07, 0.393]","[0.304, -0.26]","[-0.378, -0.136]",,16.774096380017,7.8580172800175205,13.175113880017307,"[0.42314814814814816, -0.32222222222222224, 0.27685185185185185]","[0.008333333333333333, -0.0712962962962963, 0.1814814814814815]","[1, 1, 1]","[0, 0, 0]","[0, 0, 0]","[7.8563370999982, 13.173040499998024, 16.77269779999915]",0.00099008001780021,16.773473980018025,['A1'],['B1'],['C3'],['yellow'],['salmon'],['blue'],1949.265512500002,None,10.0,1.7137650000004214,1949.265512500002,None,1956.8820242000002,None,10.0,3.8489545000011276,1960.548480700003,None,7.0,3.348121600000013,1952.4988532000025,None,0.0,4.331432999999379,<function functionImportanceC at 0x000002C5A296AAE8>,<function functionImportanceA at 0x000002C5A20F9EA0>,<function functionImportanceB at 0x000002C5A20F9C80>,,,0.0,3.8489545000011276,0.0,2.2482505000007222,4.0,2.847847000000911,<function functiondiffC at 0x000002C5A25C3268>,<function functiondiffB at 0x000002C5A25C3510>,<function functiondiffA at 0x000002C5A20F9488>,,,,,1932.0274089000013,1965.4819923000032,None,1963.0652683000008,None,1968.4152254,None,26,001,2022_Jul_20_1452,2leo,2021.2.3,59.9671739694624,
3,20,Plan a tea party with your friends,Stimuli/20A1.jpg,Stimuli/20A2.jpg,Stimuli/20A3.jpg,Stimuli/20B1.jpg,Stimuli/20B2.jpg,Stimuli/20B3.jpg,Stimuli/20C1.jpg,Stimuli/20C2.jpg,Stimuli/20C3.jpg,,,,,0,28,28,20,,,,,,,,1969.7320323000022,None,1970.7316536000035,None,1976.731440800002,None,"[0.07, 0.393]","[-0.378, -0.136]","[0.304, -0.26]","[0.399, -0.003]","[-0.2, 0.346]","[-0.203, -0.347]","[0.306, 0.255]","[-0.377, 0.138]","[0.066, -0.395]",,25.59324756000933,20.860119160010072,23.393538260010246,"[0.4361111111111111, 0.33425925925925926, 0.2861111111111111, 0.287962962962963]","[-0.026851851851851852, 0.21944444444444444, -0.36018518518518516, -0.3074074074074074]","[1, 1, 1, 1]","[0, 0, 0, 0]","[0, 0, 0, 0]","[20.857522599999356, 23.390712799999164, 25.30718600000182, 25.590761100000236]",0.0016377600113628432,25.592369860009057,['A3'],['B1'],['C1'],['yellow'],['salmon'],['blue'],2006.4306257000026,None,10.0,1.5968988999993599,2006.4306257000026,None,2008.1475413000007,None,10.0,2.6479435000001104,2015.0639740000006,None,5.0,4.248314500000561,2010.7974826000027,None,0.0,1.782002799998736,<function functionImportanceA at 0x000002C5A296AE18>,<function functionImportanceC at 0x000002C5A296A510>,<function functionImportanceB at 0x000002C5A296A1E0>,,,0.0,2.6479435000001104,3.0,2.5311495999994804,7.0,3.1809462000019266,<function functiondiffB at 0x000002C5A296AB70>,<function functiondiffA at 0x000002C5A296A400>,<function functiondiffC at 0x000002C5A296A6A8>,,,,,1980.3720214000023,2017.363868700002,None,2022.5472603000017,None,2019.9970592000027,None,26,001,2022_Jul_20_1452,2leo,2021.2.3,59.9671739694624,
3,26,Plan how to wash one round of your laundry ,Stimuli/26A1.jpg,Stimuli/26A2.jpg,Stimuli/26A3.jpg,Stimuli/26B1.jpg,Stimuli/26B2.jpg,Stimuli/26B3.jpg,Stimuli/26C1.jpg,Stimuli/26C2.jpg,Stimuli/26C3.jpg,,,,,0,29,29,26,,,,,,,,2023.9645802000014,None,2024.9636164000003,None,2030.9637284000019,None,"[0.066, -0.395]","[-0.377, 0.138]","[0.306, 0.255]","[0.304, -0.26]","[-0.378, -0.136]","[0.07, 0.393]","[-0.203, -0.347]","[-0.2, 0.346]","[0.399, -0.003]",,27.474524720000773,23.441732319999574,6.342154120000487,"[-0.17592592592592593, 0.03148148148148148, -0.33611111111111114]","[-0.30092592592592593, 0.36203703703703705, 0.12685185185185185]","[1, 1, 1]","[0, 0, 0]","[0, 0, 0]","[6.336475899999641, 23.43623369999841, 27.46939740000016]",0.00463862000106019,27.473751120000088,['A2'],['B3'],['C1'],['blue'],['salmon'],['yellow'],2060.029249000003,None,9.0,2.913296499998978,2060.029249000003,None,2069.2457504000013,None,0.0,1.5818078000011155,2063.0794356000006,None,10.0,3.9976595000007364,2067.0123980000026,None,10.0,2.2151368999984697,<function functionImportanceB at 0x000002C5A25C39D8>,<function functionImportanceC at 0x000002C5A25C3950>,<function functionImportanceA at 0x000002C5A25C3E18>,,,0.0,1.5818078000011155,10.0,2.7977649999993446,2.0,2.6315207999978156,<function functiondiffA at 0x000002C5A296AF28>,<function functiondiffB at 0x000002C5A296A048>,<function functiondiffC at 0x000002C5A296AEA0>,,,,,2032.0754199000003,2073.6457805000027,None,2076.2957000000024,None,2070.8291843000006,None,26,001,2022_Jul_20_1452,2leo,2021.2.3,59.9671739694624,
3,1,Plan how to study for an exam,Stimuli/1A1.jpg,Stimuli/1A2.jpg,Stimuli/1A3.jpg,Stimuli/1B1.jpg,Stimuli/1B2.jpg,Stimuli/1B3.jpg,Stimuli/1C1.jpg,Stimuli/1C2.jpg,Stimuli/1C3.jpg,,,,,0,30,30,1,,,,,,,,2101.0951518,None,2102.095151200003,None,2108.094897400002,None,"[0.07, 0.393]","[-0.378, -0.136]","[0.304, -0.26]","[0.306, 0.255]","[-0.377, 0.138]","[0.066, -0.395]","[0.399, -0.003]","[-0.2, 0.346]","[-0.203, -0.347]",,13.083625099996425,15.817381199994998,8.20088969999415,"[0.4203703703703704, -0.31851851851851853, 0.11851851851851852]","[0.003703703703703704, -0.17962962962962964, -0.39537037037037037]","[1, 1, 1]","[0, 0, 0]","[0, 0, 0]","[8.199298200001067, 13.082503000001452, 15.815886899999896]",0.0004923999949824065,15.81611979999434,['A2'],['B3'],['C1'],['blue'],['salmon'],['yellow'],2125.4775937000013,None,10.0,1.746244800000568,2125.4775937000013,None,2132.1108079000005,None,3.0,1.8817739999976766,2129.960962600002,None,10.0,2.1318558000020857,2127.262241100001,None,10.0,2.64778540000043,<function functionImportanceC at 0x000002C5A25C3EA0>,<function functionImportanceB at 0x000002C5A296A598>,<function functionImportanceA at 0x000002C5A296AD08>,,,5.0,1.8817739999976766,5.0,2.247435500001302,5.0,2.747873399999662,<function functiondiffB at 0x000002C5A296A0D0>,<function functiondiffA at 0x000002C5A296A950>,<function functiondiffC at 0x000002C5A25C36A8>,,,,,2109.178323100001,2133.9775431000016,None,2138.9941063000006,None,2136.744129400002,None,26,001,2022_Jul_20_1452,2leo,2021.2.3,59.9671739694624,
3,29,Plan a day in the mountains ,Stimuli/29A1.jpg,Stimuli/29A2.jpg,Stimuli/29A3.jpg,Stimuli/29B1.jpg,Stimuli/29B2.jpg,Stimuli/29B3.jpg,Stimuli/29C1.jpg,Stimuli/29C2.jpg,Stimuli/29C3.jpg,,,,,0,31,31,29,,,,,,,,2140.061396500001,None,2141.0605626000033,None,2147.0606111000016,None,"[0.07, 0.393]","[0.304, -0.26]","[-0.378, -0.136]","[0.306, 0.255]","[0.066, -0.395]","[-0.377, 0.138]","[0.399, -0.003]","[-0.203, -0.347]","[-0.2, 0.346]",,12.262372659999528,21.362199559996952,9.729336459997285,"[0.4444444444444444, -0.337037037037037, 0.35648148148148145]","[-0.020370370370370372, -0.14629629629629629, 0.22407407407407406]","[1, 1, 1]","[0, 0, 0]","[0, 0, 0]","[9.712928900000406, 12.246341200003371, 21.34608819999994]",0.015440459999808809,21.361265559997264,['A3'],['B1'],['C1'],['yellow'],['salmon'],['blue'],2170.059747500003,None,10.0,1.5973827999987407,2170.059747500003,None,2173.9762549000006,None,8.0,2.3816570000017236,2176.309724300001,None,7.0,1.9982866999998805,2171.726466600001,None,10.0,2.1812935000016296,<function functionImportanceC at 0x000002C5A04950D0>,<function functionImportanceA at 0x000002C5A04957B8>,<function functionImportanceB at 0x000002C5A0495D90>,,,7.0,2.3816570000017236,0.0,1.7477741000002425,2.0,2.2813122999978077,<function functiondiffC at 0x000002C5A296A488>,<function functiondiffB at 0x000002C5A296ABF8>,<function functiondiffA at 0x000002C5A296A7B8>,,,,,2148.2291196000006,2181.1762094000005,None,2178.293749100001,None,2183.492711400002,None,26,001,2022_Jul_20_1452,2leo,2021.2.3,59.9671739694624,
3,31,Plan your order at a restaurant    ,Stimuli/31A1.jpg,Stimuli/31A2.jpg,Stimuli/31A3.jpg,Stimuli/31B1.jpg,Stimuli/31B2.jpg,Stimuli/31B3.jpg,Stimuli/31C1.jpg,Stimuli/31C2.jpg,Stimuli/31C3.jpg,,,,,0,32,32,31,,,,,,,,2184.744199800003,None,2185.742702300002,None,2191.742789600001,None,"[-0.378, -0.136]","[0.304, -0.26]","[0.07, 0.393]","[-0.2, 0.346]","[-0.203, -0.347]","[0.399, -0.003]","[-0.377, 0.138]","[0.066, -0.395]","[0.306, 0.255]",,16.568177740005922,15.800819240004785,22.50085754000611,"[0.39351851851851855, 0.3425925925925926, 0.06574074074074074]","[-0.013888888888888888, -0.3148148148148148, -0.412962962962963]","[1, 1, 1]","[0, 0, 0]","[0, 0, 0]","[15.791767499998969, 16.559468399998877, 22.491491400000086]",0.008204040004784474,22.499427040005685,['A2'],['B3'],['C2'],['salmon'],['blue'],['yellow'],2217.291773300003,None,10.0,1.413155199999892,2217.291773300003,None,2226.2749917,None,10.0,3.131726499999786,2222.8086005000005,None,10.0,2.048317400000087,2218.808511700001,None,2.0,4.014432900003158,<function functionImportanceC at 0x000002C5A6E868C8>,<function functionImportanceB at 0x000002C5A25C3730>,<function functionImportanceA at 0x000002C5A0495C80>,,,0.0,3.131726499999786,0.0,2.264432600000873,-0.0,1.580909000000247,<function functiondiffC at 0x000002C5A296A9D8>,<function functiondiffA at 0x000002C5A25C38C8>,<function functiondiffB at 0x000002C5A296A730>,,,,,2194.333870800001,2233.1084229000007,None,2227.991697900001,None,2231.1583919000004,None,26,001,2022_Jul_20_1452,2leo,2021.2.3,59.9671739694624,
3,4,Plan a game night at your place,Stimuli/4A1.jpg,Stimuli/4A2.jpg,Stimuli/4A3.jpg,Stimuli/4B1.jpg,Stimuli/4B2.jpg,Stimuli/4B3.jpg,Stimuli/4C1.jpg,Stimuli/4C2.jpg,Stimuli/4C3.jpg,,,,,0,33,33,4,,,,,,,,2234.2096475000035,None,2235.224728100002,None,2241.2247560000033,None,"[0.304, -0.26]","[-0.378, -0.136]","[0.07, 0.393]","[0.066, -0.395]","[-0.377, 0.138]","[0.306, 0.255]","[-0.203, -0.347]","[-0.2, 0.346]","[0.399, -0.003]",,9.405835080007819,10.722756680006569,14.656313180006691,"[0.07407407407407407, 0.2962962962962963, 0.4009259259259259]","[0.3194444444444444, 0.25833333333333336, 0.003703703703703704]","[1, 1, 1]","[0, 0, 0]","[0, 0, 0]","[9.39018760000181, 10.706882700000278, 14.640157300000283]",0.015041280006698798,14.655060880006204,['A3'],['B3'],['C3'],['yellow'],['blue'],['salmon'],2259.740787100003,None,10.0,1.4301168999991205,2259.740787100003,None,2269.9406342,None,0.0,3.065044699997088,2266.4575213000026,None,1.0,2.4151466000002983,2262.5408731000025,None,10.0,5.230880500002968,<function functionImportanceC at 0x000002C5A6E86840>,<function functionImportanceB at 0x000002C5A296A2F0>,<function functionImportanceA at 0x000002C5A296A8C8>,,,-0.0,3.065044699997088,0.0,2.4642265000002226,0.0,1.6814107999998669,<function functiondiffA at 0x000002C5A20F9598>,<function functiondiffC at 0x000002C5A25C3598>,<function functiondiffB at 0x000002C5A296A268>,,,,,2244.635043600003,2276.2906134000004,None,2274.8071673000013,None,2272.290650500003,None,26,001,2022_Jul_20_1452,2leo,2021.2.3,59.9671739694624,
3,42,Plan how to draw a painting ,Stimuli/42A1.jpg,Stimuli/42A2.jpg,Stimuli/42A3.jpg,Stimuli/42B1.jpg,Stimuli/42B2.jpg,Stimuli/42B3.jpg,Stimuli/42C1.jpg,Stimuli/42C2.jpg,Stimuli/42C3.jpg,,,,,0,34,34,42,,,,,,,,2277.4923990000025,None,2278.506953100001,None,2284.507112500003,None,"[0.306, 0.255]","[-0.377, 0.138]","[0.066, -0.395]","[0.07, 0.393]","[-0.378, -0.136]","[0.304, -0.26]","[0.399, -0.003]","[-0.2, 0.346]","[-0.203, -0.347]",,24.401433120001457,17.785840820000885,21.635525620000408,"[-0.37592592592592594, -0.2037037037037037, -0.34814814814814815]","[-0.14907407407407408, -0.3861111111111111, 0.09166666666666666]","[1, 1, 1]","[0, 0, 0]","[0, 0, 0]","[17.77442710000105, 21.623783600000024, 24.39027630000055]",0.01065802000084659,24.400727520001965,['A2'],['B2'],['C3'],['yellow'],['blue'],['salmon'],2310.656120800002,None,10.0,1.8638839999985066,2310.656120800002,None,2318.339316100002,None,0.0,1.4982309000006353,2312.5899394000007,None,10.0,3.3642843999987235,2316.0060658,None,10.0,2.148407500000758,<function functionImportanceB at 0x000002C5A6E86488>,<function functionImportanceC at 0x000002C5A6E866A8>,<function functionImportanceA at 0x000002C5A296AD90>,,,0.0,1.4982309000006353,0.0,1.6145507999972324,1.0,2.331355700000131,<function functiondiffB at 0x000002C5A296AC80>,<function functiondiffA at 0x000002C5A296A840>,<function functiondiffC at 0x000002C5A296A158>,,,,,2285.7815284000026,2319.6226846000027,None,2323.605940100002,None,2322.005965600001,None,26,001,2022_Jul_20_1452,2leo,2021.2.3,59.9671739694624,
3,0,Plan a barbecue,Stimuli/0A1.jpg,Stimuli/0A2.jpg,Stimuli/0A3.jpg,Stimuli/0B1.jpg,Stimuli/0B2.jpg,Stimuli/0B3.jpg,Stimuli/0C1.jpg,Stimuli/0C2.jpg,Stimuli/0C3.jpg,,,,,0,35,35,0,,,,,,,,2325.1073025000005,None,2326.1224359000007,None,2332.1224702,None,"[0.07, 0.393]","[0.304, -0.26]","[-0.378, -0.136]","[0.399, -0.003]","[-0.203, -0.347]","[-0.2, 0.346]","[0.306, 0.255]","[0.066, -0.395]","[-0.377, 0.138]",,11.955874260005658,9.939649160005501,10.756666560006124,"[-0.1175925925925926, -0.2953703703703704, 0.3101851851851852]","[-0.3527777777777778, 0.11574074074074074, -0.2759259259259259]","[1, 1, 1]","[0, 0, 0]","[0, 0, 0]","[9.936856899999839, 10.753556499999831, 11.953323300000193]",0.0019912600073439535,11.955241960007697,['A2'],['B2'],['C3'],['blue'],['yellow'],['salmon'],2347.0050119000007,None,10.0,1.3465310999999929,2347.0050119000007,None,2349.7566364000013,None,10.0,4.580830400002014,2353.0214892000004,None,10.0,1.7819039999994857,2354.804793800002,None,5.0,2.1153391000007105,<function functionImportanceA at 0x000002C5A6E86AE8>,<function functionImportanceB at 0x000002C5A6E86BF8>,<function functionImportanceC at 0x000002C5A6E86A60>,,,0.0,4.580830400002014,0.0,2.647979999997915,0.0,2.981139199997415,<function functiondiffB at 0x000002C5A6E86268>,<function functiondiffC at 0x000002C5A6E86400>,<function functiondiffA at 0x000002C5A6E86378>,,,,,2334.5817523000005,2356.9218081,None,2359.9214694,None,2362.471632500001,None,26,001,2022_Jul_20_1452,2leo,2021.2.3,59.9671739694624,
3,40,Plan to see a sports event ,Stimuli/40A1.jpg,Stimuli/40A2.jpg,Stimuli/40A3.jpg,Stimuli/40B1.jpg,Stimuli/40B2.jpg,Stimuli/40B3.jpg,Stimuli/40C1.jpg,Stimuli/40C2.jpg,Stimuli/40C3.jpg,,,,,0,36,36,40,,,,,,,,2364.257318,None,2365.2714215000015,None,2371.271537300003,None,"[0.306, 0.255]","[-0.377, 0.138]","[0.066, -0.395]","[0.07, 0.393]","[-0.378, -0.136]","[0.304, -0.26]","[0.399, -0.003]","[-0.2, 0.346]","[-0.203, -0.347]",,21.187603040001704,16.287658339999325,10.888438239999232,"[-0.24722222222222223, 0.11018518518518519, 0.03888888888888889]","[0.38796296296296295, 0.33796296296296297, -0.41388888888888886]","[1, 1, 1]","[0, 0, 0]","[0, 0, 0]","[10.883641199998237, 16.28318859999854, 21.18319469999915]",0.0037772399991808925,21.186772740002198,['A3'],['B1'],['C2'],['blue'],['yellow'],['salmon'],2394.2540186000006,None,10.0,1.9297547999995004,2394.2540186000006,None,2400.6704914,None,8.0,2.9653800999985833,2396.3874232000016,None,8.0,4.3316997999972955,2403.5871644,None,0.0,1.6818087999999989,<function functionImportanceB at 0x000002C5A7314598>,<function functionImportanceA at 0x000002C5A20F9D90>,<function functionImportanceC at 0x000002C5A7314510>,,,-0.0,2.9653800999985833,-0.0,2.247620400001324,0.0,1.697836900002585,<function functiondiffA at 0x000002C5A6E86E18>,<function functiondiffC at 0x000002C5A6E869D8>,<function functiondiffB at 0x000002C5A6E86EA0>,,,,,2372.5871523000023,2409.4703934000026,None,2407.5203610000026,None,2405.253591300003,None,26,001,2022_Jul_20_1452,2leo,2021.2.3,59.9671739694624,
3,30,Plan your sport work out for tomorrow,Stimuli/30A1.jpg,Stimuli/30A2.jpg,Stimuli/30A3.jpg,Stimuli/30B1.jpg,Stimuli/30B2.jpg,Stimuli/30B3.jpg,Stimuli/30C1.jpg,Stimuli/30C2.jpg,Stimuli/30C3.jpg,,,,,0,37,37,30,,,,,,,,2410.655325800002,None,2411.670333500002,None,2417.6702797000034,None,"[0.304, -0.26]","[0.07, 0.393]","[-0.378, -0.136]","[0.066, -0.395]","[0.306, 0.255]","[-0.377, 0.138]","[-0.203, -0.347]","[0.399, -0.003]","[-0.2, 0.346]",,18.384543700001814,5.485531500002253,10.268664100000024,"[-0.38425925925925924, -0.1935185185185185, 0.10555555555555556]","[0.1, 0.325, 0.35555555555555557]","[1, 1, 1]","[0, 0, 0]","[0, 0, 0]","[5.4831258000012895, 10.266022499999963, 18.382449500000803]",0.0015530999990005512,18.383918200001062,['A2'],['B3'],['C3'],['blue'],['salmon'],['yellow'],2437.702843400002,None,10.0,2.2136092000000644,2437.702843400002,None,2439.9862396000026,None,10.0,2.76452000000063,2442.819569200001,None,0.0,1.6979933000002347,2444.4860008000032,None,0.0,1.6654170000001614,<function functionImportanceA at 0x000002C5A25C32F0>,<function functionImportanceB at 0x000002C5A296AA60>,<function functionImportanceC at 0x000002C5A6E86950>,,,0.0,2.76452000000063,7.0,2.364665300003253,0.0,1.5978398999977799,<function functiondiffC at 0x000002C5A6E86D08>,<function functiondiffA at 0x000002C5A20F99D8>,<function functiondiffB at 0x000002C5A6E86D90>,,,,,2418.834128600003,2450.819343500003,None,2446.1361756000006,None,2448.4194167000023,None,26,001,2022_Jul_20_1452,2leo,2021.2.3,59.9671739694624,
3,38,Plan how you want to go for a run,Stimuli/38A1.jpg,Stimuli/38A2.jpg,Stimuli/38A3.jpg,Stimuli/38B1.jpg,Stimuli/38B2.jpg,Stimuli/38B3.jpg,Stimuli/38C1.jpg,Stimuli/38C2.jpg,Stimuli/38C3.jpg,,,,,0,38,38,38,,,,,,,,2451.9213705,None,2452.935688900001,None,2458.935625000002,None,"[0.306, 0.255]","[-0.377, 0.138]","[0.066, -0.395]","[0.399, -0.003]","[-0.2, 0.346]","[-0.203, -0.347]","[0.07, 0.393]","[-0.378, -0.136]","[0.304, -0.26]",,13.991108120000717,8.708437220000633,12.141878320002434,"[-0.2064814814814815, 0.34074074074074073, -0.3333333333333333]","[-0.387037037037037, -0.25833333333333336, 0.11851851851851852]","[1, 1, 1]","[0, 0, 0]","[0, 0, 0]","[8.702670099999523, 12.135864299998502, 13.985627999998542]",0.0049282200016023125,13.99050532000183,['A2'],['B3'],['C3'],['salmon'],['yellow'],['blue'],2474.6018274000016,None,10.0,1.731485000000248,2474.6018274000016,None,2480.1352811000033,None,10.0,1.6487717000018165,2476.401857500001,None,10.0,3.713951599998836,2481.8852314000032,None,10.0,1.515322399998695,<function functionImportanceB at 0x000002C5A7314D08>,<function functionImportanceA at 0x000002C5A6E86B70>,<function functionImportanceC at 0x000002C5A7314E18>,,,0.0,1.6487717000018165,-0.0,2.1143755999983114,0.0,1.4473059000010835,<function functiondiffA at 0x000002C5A73149D8>,<function functiondiffC at 0x000002C5A7314048>,<function functiondiffB at 0x000002C5A7314AE8>,,,,,2460.131792100001,2486.851709300001,None,2485.4516054000014,None,2483.3017679000004,None,26,001,2022_Jul_20_1452,2leo,2021.2.3,59.9671739694624,
3,44,Plan a party at your place,Stimuli/44A1.jpg,Stimuli/44A2.jpg,Stimuli/44A3.jpg,Stimuli/44B1.jpg,Stimuli/44B2.jpg,Stimuli/44B3.jpg,Stimuli/44C1.jpg,Stimuli/44C2.jpg,Stimuli/44C3.jpg,,,,,0,39,39,44,,,,,,,,2487.8204936,None,2488.8348970000006,None,2494.834716600002,None,"[0.399, -0.003]","[-0.2, 0.346]","[-0.203, -0.347]","[0.07, 0.393]","[-0.378, -0.136]","[0.304, -0.26]","[0.306, 0.255]","[-0.377, 0.138]","[0.066, -0.395]",,17.007482920002076,12.124692820001655,23.557756520000112,"[0.08055555555555556, 0.38425925925925924, -0.40370370370370373]","[0.39166666666666666, -0.037037037037037035, 0.08611111111111111]","[1, 1, 1]","[0, 0, 0]","[0, 0, 0]","[12.119859599999472, 17.002921199997218, 23.55257899999924]",0.004159020001679892,23.556299820000277,['A1'],['B1'],['C2'],['salmon'],['blue'],['yellow'],2519.983895600002,None,10.0,1.6970317000013893,2519.983895600002,None,2521.7341313000034,None,0.0,2.3977220000015222,2524.1674999000024,None,-0.0,2.0817530999993323,2526.267280600001,None,7.0,2.2657154999978957,<function functionImportanceA at 0x000002C5A6E867B8>,<function functionImportanceB at 0x000002C5A7314158>,<function functionImportanceC at 0x000002C5A7314268>,,,5.0,2.3977220000015222,0.0,2.5974344999995083,1.0,3.2144931000002543,<function functiondiffA at 0x000002C5A7314488>,<function functiondiffB at 0x000002C5A7314400>,<function functiondiffC at 0x000002C5A73140D0>,,,,,2495.9470913000005,2531.1337982000005,None,2534.3671785000006,None,2528.5172906000007,None,26,001,2022_Jul_20_1452,2leo,2021.2.3,59.9671739694624,
3,3,Plan a movie night with a friend,Stimuli/3A1.jpg,Stimuli/3A2.jpg,Stimuli/3A3.jpg,Stimuli/3B1.jpg,Stimuli/3B2.jpg,Stimuli/3B3.jpg,Stimuli/3C1.jpg,Stimuli/3C2.jpg,Stimuli/3C3.jpg,,,,,0,40,40,3,,,,,,,,2535.9859695000014,None,2537.000196300003,None,2543.000304100002,None,"[0.306, 0.255]","[0.066, -0.395]","[-0.377, 0.138]","[0.07, 0.393]","[0.304, -0.26]","[-0.378, -0.136]","[0.399, -0.003]","[-0.203, -0.347]","[-0.2, 0.346]",,15.827673400010099,26.594458800009306,20.828195700010838,"[-0.30185185185185187, -0.18425925925925926, -0.33055555555555555]","[0.08425925925925926, 0.34074074074074073, -0.11851851851851852]","[1, 1, 1]","[0, 0, 0]","[0, 0, 0]","[15.81697439999698, 20.817040599999018, 26.58347700000013]",0.009970600011001807,26.593281000008574,['A3'],['B3'],['C3'],['salmon'],['blue'],['yellow'],2573.582461000002,None,10.0,1.4631096000011894,2573.582461000002,None,2585.7824523000018,None,10.0,1.9483856000006199,2581.3323818000026,None,8.0,5.13174010000148,2576.815749700003,None,2.0,5.497833700002957,<function functionImportanceC at 0x000002C5A753E268>,<function functionImportanceB at 0x000002C5A6E86598>,<function functionImportanceA at 0x000002C5A6E86510>,,,-0.0,1.9483856000006199,-0.0,1.7979536999991979,5.0,2.4645114000013564,<function functiondiffC at 0x000002C5A753E378>,<function functiondiffB at 0x000002C5A7314378>,<function functiondiffA at 0x000002C5A7314A60>,,,,,2546.5336330000027,2590.6822500000017,None,2588.0656449000016,None,2592.8154643000016,None,26,001,2022_Jul_20_1452,2leo,2021.2.3,59.9671739694624,
3,37,Plan your cleaning routine ,Stimuli/37A1.jpg,Stimuli/37A2.jpg,Stimuli/37A3.jpg,Stimuli/37B1.jpg,Stimuli/37B2.jpg,Stimuli/37B3.jpg,Stimuli/37C1.jpg,Stimuli/37C2.jpg,Stimuli/37C3.jpg,,,,,0,41,41,37,,,,,,,,2594.134844600001,None,2595.1486798000005,None,2601.1488745000024,None,"[-0.2, 0.346]","[0.399, -0.003]","[-0.203, -0.347]","[-0.377, 0.138]","[0.306, 0.255]","[0.066, -0.395]","[-0.378, -0.136]","[0.07, 0.393]","[0.304, -0.26]",,21.18074228000114,18.48171247999926,25.94750438000119,"[0.3074074074074074, -0.19814814814814816, -0.31574074074074077]","[0.1962962962962963, 0.33796296296296297, -0.12685185185185185]","[1, 1, 1]","[0, 0, 0]","[0, 0, 0]","[18.46486569999979, 21.164262400001462, 25.930478800000856]",0.016074980001576478,25.946467879999545,['A1'],['B2'],['C1'],['blue'],['yellow'],['salmon'],2628.681037100003,None,8.0,1.4139561999982106,2628.681037100003,None,2633.0146563000017,None,10.0,1.6816379999982018,2634.747891400002,None,10.0,2.6648356999976386,2630.1979995,None,10.0,2.8307821999987937,<function functionImportanceC at 0x000002C5A753E1E0>,<function functionImportanceA at 0x000002C5A73146A8>,<function functionImportanceB at 0x000002C5A753E598>,,,7.0,1.6816379999982018,0.0,3.681191099996795,-0.0,2.364217700000154,<function functiondiffB at 0x000002C5A7314BF8>,<function functiondiffA at 0x000002C5A6E86730>,<function functiondiffC at 0x000002C5A73142F0>,,,,,2602.2651754000035,2637.364608600001,None,2643.4477540000007,None,2639.747800600002,None,26,001,2022_Jul_20_1452,2leo,2021.2.3,59.9671739694624,
3,15,Plan your own Pasta for lunch,Stimuli/15A1.jpg,Stimuli/15A2.jpg,Stimuli/15A3.jpg,Stimuli/15B1.jpg,Stimuli/15B2.jpg,Stimuli/15B3.jpg,Stimuli/15C1.jpg,Stimuli/15C2.jpg,Stimuli/15C3.jpg,,,,,0,42,42,15,,,,,,,,2644.967453100002,None,2645.9807567000025,None,2651.980914300002,None,"[0.066, -0.395]","[0.306, 0.255]","[-0.377, 0.138]","[-0.203, -0.347]","[0.399, -0.003]","[-0.2, 0.346]","[0.304, -0.26]","[0.07, 0.393]","[-0.378, -0.136]",,4.781397320002725,16.964516220003134,10.565142020001076,"[0.287962962962963, 0.07685185185185185, 0.5361111111111111, 0.4601851851851852]","[0.25555555555555554, 0.44166666666666665, -0.002777777777777778, 0.0]","[1, 1, 1, 1]","[0, 0, 0, 0]","[0, 0, 0, 0]","[4.777566700002353, 10.560750200002076, 16.677633900002547, 16.960370300002978]",0.003297120001661824,16.963529820000986,['A2'],['B2'],['C2'],['blue'],['yellow'],['salmon'],2671.296660600001,None,10.0,1.580328299998655,2671.296660600001,None,2673.0135420000006,None,5.0,3.7816179000001284,2676.730148400002,None,10.0,1.9151347000006353,2679.3632916000024,None,10.0,2.4649835000018356,<function functionImportanceA at 0x000002C5A753E048>,<function functionImportanceB at 0x000002C5A753E400>,<function functionImportanceC at 0x000002C5A753E620>,,,-0.0,3.7816179000001284,3.0,1.8813859000001685,-0.0,1.7644874999969034,<function functiondiffC at 0x000002C5A7314C80>,<function functiondiffA at 0x000002C5A6E862F0>,<function functiondiffB at 0x000002C5A7314840>,,,,,2653.864703000003,2685.429837900003,None,2681.2633539000017,None,2683.5298649000033,None,26,001,2022_Jul_20_1452,2leo,2021.2.3,59.9671739694624,
3,13,Plan a romantic date this weekend,Stimuli/13A1.jpg,Stimuli/13A2.jpg,Stimuli/13A3.jpg,Stimuli/13B1.jpg,Stimuli/13B2.jpg,Stimuli/13B3.jpg,Stimuli/13C1.jpg,Stimuli/13C2.jpg,Stimuli/13C3.jpg,,,,,0,43,43,13,,,,,,,,2686.715946600001,None,2687.729801200003,None,2693.7296989000024,None,"[-0.203, -0.347]","[-0.2, 0.346]","[0.399, -0.003]","[0.066, -0.395]","[-0.377, 0.138]","[0.306, 0.255]","[0.304, -0.26]","[-0.378, -0.136]","[0.07, 0.393]",,10.658030120001058,27.489775620004366,17.30703912000172,"[0.44537037037037036, -0.3314814814814815, -0.35]","[-0.05277777777777778, -0.10092592592592593, 0.15]","[1, 1, 1]","[0, 0, 0]","[0, 0, 0]","[10.653157899996586, 17.301819699998305, 27.48479889999726]",0.0041990200043073855,27.488744320002297,['A3'],['B2'],['C2'],['yellow'],['blue'],['salmon'],2722.895280200002,None,10.0,1.7297352999994473,2722.895280200002,None,2724.7119004000015,None,3.0,3.8144116000003123,2730.6620599000016,None,-0.0,2.0487179000010656,2728.562106000001,None,10.0,2.0650115000025835,<function functionImportanceA at 0x000002C5A753E488>,<function functionImportanceC at 0x000002C5A753EF28>,<function functionImportanceB at 0x000002C5A753EE18>,,,0.0,3.8144116000003123,7.0,1.8478537000009965,6.0,3.0477018999990833,<function functiondiffB at 0x000002C5A753E0D0>,<function functiondiffA at 0x000002C5A753E8C8>,<function functiondiffC at 0x000002C5A753EC80>,,,,,2694.9269243000017,2732.661906700003,None,2737.5785921000024,None,2735.7119464000025,None,26,001,2022_Jul_20_1452,2leo,2021.2.3,59.9671739694624,
3,43,Plan your dream house,Stimuli/43A1.jpg,Stimuli/43A2.jpg,Stimuli/43A3.jpg,Stimuli/43B1.jpg,Stimuli/43B2.jpg,Stimuli/43B3.jpg,Stimuli/43C1.jpg,Stimuli/43C2.jpg,Stimuli/43C3.jpg,,,,,0,44,44,43,,,,,,,,2739.215391400001,None,2740.2282325000015,None,2746.2283631000028,None,"[0.306, 0.255]","[0.066, -0.395]","[-0.377, 0.138]","[0.399, -0.003]","[-0.203, -0.347]","[-0.2, 0.346]","[0.07, 0.393]","[0.304, -0.26]","[-0.378, -0.136]",,6.850064779999229,20.93375857999854,18.43374957999913,"[0.3212962962962963, 0.017592592592592594, -0.16574074074074074]","[0.21481481481481482, 0.3194444444444444, 0.29259259259259257]","[1, 1, 1]","[0, 0, 0]","[0, 0, 0]","[6.849077299997589, 18.43224129999726, 20.93232429999989]",0.0005781799991382286,20.932491979998304,['A1'],['B3'],['C1'],['salmon'],['blue'],['yellow'],2768.777549800001,None,10.0,1.3798306999997294,2768.777549800001,None,2772.6609919,None,6.0,2.3151127000019187,2770.227628800003,None,10.0,2.397657599998638,2774.960910500002,None,10.0,1.4650112000017543,<function functionImportanceB at 0x000002C5A753ED90>,<function functionImportanceA at 0x000002C5A7314D90>,<function functionImportanceC at 0x000002C5A753EEA0>,,,8.0,2.3151127000019187,-0.0,2.081061700002465,-0.0,1.9477399000024889,<function functiondiffA at 0x000002C5A753EAE8>,<function functiondiffC at 0x000002C5A7314F28>,<function functiondiffB at 0x000002C5A753E6A8>,,,,,2747.3601357000007,2780.3107635000015,None,2778.5274272000024,None,2776.4109097,None,26,001,2022_Jul_20_1452,2leo,2021.2.3,59.9671739694624,
