Condition,N_Scenario,written_scenario,ImageA1,ImageA2,ImageA3,ImageB1,ImageB2,ImageB3,ImageC1,ImageC2,ImageC3,trials_2.thisRepN,trials_2.thisTrialN,trials_2.thisN,trials_2.thisIndex,trial.thisRepN,trial.thisTrialN,trial.thisN,trial.thisIndex,button_2.started,button_2.stopped,button_2.numClicks,button_2.timesOn,button_2.timesOff,text.started,text.stopped,fixationcross1_started,fixationcross1_stopped,Scenario_started,Scenario_stopped,fixationcross2_started,fixationcross2_stopped,A1pos,A2pos,A3pos,B1pos,B2pos,B3pos,C1pos,C2pos,C3pos,﻿Imagesdecision_started,decisiontimeA,decisiontimeB,decisiontimeC,mouse_x,mouse_y,mouse_leftButton,mouse_midButton,mouse_rightButton,mouse_time,mouse_started,mouse_stopped,clicked_optionA,clicked_optionB,clicked_optionC,colour_category_A,colour_category_B,colour_category_C,question_confidence_started,question_confidence_stopped,slider_confidence_response,slider_confidence_rt,slider_confidence_started,slider_confidence_stopped,question_valueA_started,question_valueA_stopped,slider_valueA_response,slider_valueA_rt,question_valueB_started,question_valueB_stopped,slider_valueB_response,slider_valueB_rt,question_valueC_started,question_valueC_stopped,slider_valueC_response,slider_valueC_rt,Importance_First,Importance_Second,Importance_Third,question_diff_started,question_diff_stopped,slider_diffA_response,slider_diffA_rt,slider_diffC_response,slider_diffC_rt,slider_diffB_response,slider_diffB_rt,diff_First,diff_Second,diff_Third,button_3_started,button_3_stopped,text_2_started,text_2_stopped,Imagesdecision_started,question_diffC_started,question_diffC_stopped,question_diffA_started,question_diffA_stopped,question_diffB_started,question_diffB_stopped,participant,session,date,expName,psychopyVersion,frameRate,
3,2,Plan a party to celebrate your birthday,Stimuli/2A1t.jpg,Stimuli/2A2t.jpg,Stimuli/2A3t.jpg,Stimuli/2B1t.jpg,Stimuli/2B2t.jpg,Stimuli/2B3t.jpg,Stimuli/2C1t.jpg,Stimuli/2C2t.jpg,Stimuli/2C3t.jpg,0,0,0,0,,,,,32.16324439999994,None,1,[5.082506299999977],[5.08253179999997],32.16324439999994,None,89.77122989999998,None,90.77246190000005,None,96.77244790000009,None,"[-0.2, 0.346]","[0.399, -0.003]","[-0.203, -0.347]","[-0.377, 0.138]","[0.306, 0.255]","[0.066, -0.395]","[-0.378, -0.136]","[0.07, 0.393]","[0.304, -0.26]",100.83668089999992,22.311801480001122,8.345707180001,14.829229380001152,"[-0.3907407407407407, 0.049074074074074076, 0.3212962962962963]","[0.11388888888888889, 0.3416666666666667, 0.014814814814814815]","[1, 1, 1]","[0, 0, 0]","[0, 0, 0]","[8.33369800000014, 14.816950300000144, 22.300017600000047]",0.011266280001109408,22.31124418000104,['A2'],['B1'],['C2'],['yellow'],['blue'],['salmon'],123.6047208,None,10.0,5.1136507000001075,123.6047208,None,130.10452220000002,None,9.0,13.913983800000096,144.30442190000008,None,8.0,5.548051299999997,148.30419260000008,None,3.0,13.41463090000002,<function functionImportanceAt at 0x000002620B271E18>,<function functionImportanceBt at 0x000002620E851268>,<function functionImportanceCt at 0x000002621A8A0D90>,182.00320439999996,None,2.0,13.913983800000096,2.0,6.097737699999925,6.0,5.531082200000128,<function functiondiffAt at 0x000002621B604F28>,<function functiondiffCt at 0x000002621B604D90>,<function functiondiffBt at 0x000002621B604EA0>,,,,,,,,,,,,15,001,2022_Jul_19_0903,2leo,2021.2.3,59.965411950381636,
3,3,Plan one week of vacation,Stimuli/3A1t.jpg,Stimuli/3A2t.jpg,Stimuli/3A3t.jpg,Stimuli/3B1t.jpg,Stimuli/3B2t.jpg,Stimuli/3B3t.jpg,Stimuli/3C1t.jpg,Stimuli/3C2t.jpg,Stimuli/3C3t.jpg,0,1,1,1,,,,,,,,,,,,186.60305449999987,None,187.60315689999993,None,193.60316669999997,None,"[0.399, -0.003]","[-0.2, 0.346]","[-0.203, -0.347]","[0.07, 0.393]","[-0.378, -0.136]","[0.304, -0.26]","[0.306, 0.255]","[-0.377, 0.138]","[0.066, -0.395]",199.74742779999997,23.58875210000133,45.488483400001314,29.539484400001356,"[-0.20555555555555555, 0.046296296296296294, 0.05555555555555555]","[0.3277777777777778, -0.3527777777777778, 0.35]","[1, 1, 1]","[0, 0, 0]","[0, 0, 0]","[23.58753700000011, 29.53770589999999, 45.487087700000075]",0.0006914000014148769,45.487756500001296,['A2'],['B1'],['C3'],['blue'],['salmon'],['yellow'],245.70129539999994,None,7.0,11.497513799999979,245.70129539999994,None,265.8173262,None,6.0,18.081699800000024,283.7170624999999,None,9.0,9.498104799999965,258.7343317,None,7.0,6.614164600000095,<function functionImportanceCt at 0x000002620FF64E18>,<function functionImportanceAt at 0x000002621A8A0268>,<function functionImportanceBt at 0x000002621A8A0EA0>,305.6999025,None,1.0,18.081699800000024,7.0,7.763911900000039,3.0,5.731055599999991,<function functiondiffCt at 0x000002621B604840>,<function functiondiffBt at 0x000002621B6042F0>,<function functiondiffAt at 0x000002621B6041E0>,,,,,,,,,,,,15,001,2022_Jul_19_0903,2leo,2021.2.3,59.965411950381636,
3,28,Plan a one-week camping trip in Spain,Stimuli/28A1.jpg,Stimuli/28A2.jpg,Stimuli/28A3.jpg,Stimuli/28B1.jpg,Stimuli/28B2.jpg,Stimuli/28B3.jpg,Stimuli/28C1.jpg,Stimuli/28C2.jpg,Stimuli/28C3.jpg,,,,,0,0,0,28,,,,,,,,433.2011324,None,434.17966150000007,None,440.17943820000005,None,"[-0.377, 0.138]","[0.066, -0.395]","[0.306, 0.255]","[-0.378, -0.136]","[0.304, -0.26]","[0.07, 0.393]","[-0.2, 0.346]","[-0.203, -0.347]","[0.399, -0.003]",,16.58698987999992,19.120268779999833,35.93693847999998,"[0.04537037037037037, 0.28888888888888886, -0.19814814814814816]","[-0.3333333333333333, -0.24074074074074073, -0.29814814814814816]","[1, 1, 1]","[0, 0, 0]","[0, 0, 0]","[16.58375359999991, 19.11678209999991, 35.933213199999955]",0.002712879999762663,35.935733779999964,['A2'],['B2'],['C2'],['yellow'],['blue'],['salmon'],477.79482239999993,None,5.0,7.995521199999985,477.79482239999993,None,495.8275057000001,None,2.0,6.864931399999932,492.0442625999999,None,7.0,3.748502099999996,485.89452000000006,None,1.0,6.131208699999888,<function functionImportanceC at 0x000002621BA84488>,<function functionImportanceB at 0x000002621A8A0B70>,<function functionImportanceA at 0x000002621B604BF8>,,,3.0,10.881062200000088,7.0,6.864931399999932,1.0,8.430567299999893,<function functiondiffC at 0x000002621B6046A8>,<function functiondiffA at 0x000002621B604488>,<function functiondiffB at 0x000002621B604C80>,311.3829925,None,311.3829925,None,441.3778637999999,502.62755360000006,None,507.46073290000004,None,518.3602928,None,15,001,2022_Jul_19_0903,2leo,2021.2.3,59.965411950381636,
3,10,Plan a restaurant visit with your family on the weekend ,Stimuli/10A1.jpg,Stimuli/10A2.jpg,Stimuli/10A3.jpg,Stimuli/10B1.jpg,Stimuli/10B2.jpg,Stimuli/10B3.jpg,Stimuli/10C1.jpg,Stimuli/10C2.jpg,Stimuli/10C3.jpg,,,,,0,1,1,10,,,,,,,,526.3103678,None,527.3101912,None,533.3102558,None,"[-0.203, -0.347]","[-0.2, 0.346]","[0.399, -0.003]","[0.066, -0.395]","[-0.377, 0.138]","[0.306, 0.255]","[0.304, -0.26]","[-0.378, -0.136]","[0.07, 0.393]",,14.714547620000758,28.114075420000745,17.514650620000566,"[-0.17037037037037037, 0.03148148148148148, 0.027777777777777776]","[0.3037037037037037, 0.3398148148148148, -0.39537037037037037]","[1, 1, 1]","[0, 0, 0]","[0, 0, 0]","[14.701674599999933, 17.501186599999983, 28.10092809999992]",0.012156020000702483,28.113225320000765,['A2'],['B1'],['C3'],['salmon'],['yellow'],['blue'],565.8757224000001,None,8.0,2.862639799999897,565.8757224000001,None,579.7254853,None,6.0,5.165221199999905,571.5590325000001,None,9.0,10.780643600000076,584.7752204999999,None,9.0,5.498580300000185,<function functionImportanceB at 0x000002621BA84C80>,<function functionImportanceA at 0x000002621BA84A60>,<function functionImportanceC at 0x000002621BA840D0>,,,1.0,4.181171100000029,0.0,5.165221199999905,2.0,3.7126923999999235,<function functiondiffC at 0x000002621B6048C8>,<function functiondiffA at 0x00000262081031E0>,<function functiondiffB at 0x000002621B604510>,,,,,537.3038959999999,590.2748191999999,None,596.2916045,None,601.2913853,None,15,001,2022_Jul_19_0903,2leo,2021.2.3,59.965411950381636,
3,11,Plan a hike in nature on a free day,Stimuli/11A1.jpg,Stimuli/11A2.jpg,Stimuli/11A3.jpg,Stimuli/11B1.jpg,Stimuli/11B2.jpg,Stimuli/11B3.jpg,Stimuli/11C1.jpg,Stimuli/11C2.jpg,Stimuli/11C3.jpg,,,,,0,2,2,11,,,,,,,,603.8120512,None,604.7245995000001,None,610.7244940999999,None,"[0.07, 0.393]","[-0.378, -0.136]","[0.304, -0.26]","[0.399, -0.003]","[-0.2, 0.346]","[-0.203, -0.347]","[0.306, 0.255]","[-0.377, 0.138]","[0.066, -0.395]",,24.72836058000007,10.395719780000036,33.81221688000005,"[-0.1685185185185185, 0.05185185185185185, -0.3314814814814815]","[0.29259259259259257, 0.3472222222222222, 0.1675925925925926]","[1, 1, 1]","[0, 0, 0]","[0, 0, 0]","[10.379529000000048, 24.71254840000006, 33.79580450000003]",0.015266279999877952,33.81091528000002,['A1'],['B2'],['C2'],['blue'],['salmon'],['yellow'],646.1900017,None,9.0,5.113687899999832,646.1900017,None,660.8896958999999,None,10.0,5.848573199999919,657.9732428,None,10.0,2.965263600000071,651.373239,None,6.0,6.514730900000131,<function functionImportanceC at 0x000002621BA84F28>,<function functionImportanceB at 0x000002621BA841E0>,<function functionImportanceA at 0x000002621BA84E18>,,,8.0,7.814602199999854,2.0,5.848573199999919,0.0,2.798901300000125,<function functiondiffC at 0x000002621B604A60>,<function functiondiffA at 0x000002621BA84598>,<function functiondiffB at 0x000002621BA84950>,,,,,611.910054,666.7229414999999,None,674.4561051999999,None,682.2892132,None,15,001,2022_Jul_19_0903,2leo,2021.2.3,59.965411950381636,
3,8,Plan the interior of your living-room ,Stimuli/8A1.jpg,Stimuli/8A2.jpg,Stimuli/8A3.jpg,Stimuli/8B1.jpg,Stimuli/8B2.jpg,Stimuli/8B3.jpg,Stimuli/8C1.jpg,Stimuli/8C2.jpg,Stimuli/8C3.jpg,,,,,0,3,3,8,,,,,,,,684.6055434,None,685.6055188999999,None,691.6056578,None,"[0.399, -0.003]","[-0.203, -0.347]","[-0.2, 0.346]","[0.07, 0.393]","[0.304, -0.26]","[-0.378, -0.136]","[0.306, 0.255]","[0.066, -0.395]","[-0.377, 0.138]",,45.635315160001255,23.61954616000139,9.186859460001415,"[-0.412962962962963, 0.09722222222222222, -0.2212962962962963]","[0.12777777777777777, 0.34074074074074073, -0.35555555555555557]","[1, 1, 1]","[0, 0, 0]","[0, 0, 0]","[9.17557140000008, 23.60872630000017, 45.62467230000016]",0.010135260001334245,45.63457676000144,['A2'],['B1'],['C3'],['yellow'],['salmon'],['blue'],742.5538988000001,None,6.0,3.0300548000000163,742.5538988000001,None,745.6538204000001,None,6.0,4.164275899999893,751.5704622000001,None,4.0,5.281669700000066,757.0702403999999,None,9.0,4.714752399999952,<function functionImportanceA at 0x000002621BA84EA0>,<function functionImportanceB at 0x000002621BA84D90>,<function functionImportanceC at 0x0000026217B5EF28>,,,9.0,4.330951299999924,3.0,4.164275899999893,3.0,4.664495500000157,<function functiondiffC at 0x000002621BE09268>,<function functiondiffA at 0x000002621BA84730>,<function functiondiffB at 0x000002621BA84B70>,,,,,696.4622609,760.4365756,None,765.3034825,None,770.2032184,None,15,001,2022_Jul_19_0903,2leo,2021.2.3,59.965411950381636,
3,40,Plan to see a sports event ,Stimuli/40A1.jpg,Stimuli/40A2.jpg,Stimuli/40A3.jpg,Stimuli/40B1.jpg,Stimuli/40B2.jpg,Stimuli/40B3.jpg,Stimuli/40C1.jpg,Stimuli/40C2.jpg,Stimuli/40C3.jpg,,,,,0,4,4,40,,,,,,,,773.8363297999999,None,774.836431,None,780.8364457999999,None,"[0.07, 0.393]","[0.304, -0.26]","[-0.378, -0.136]","[0.399, -0.003]","[-0.203, -0.347]","[-0.2, 0.346]","[0.306, 0.255]","[0.066, -0.395]","[-0.377, 0.138]",,26.37033636000001,6.370628359999955,39.33707095999989,"[0.43796296296296294, -0.3851851851851852, 0.2814814814814815]","[0.022222222222222223, -0.075, 0.18518518518518517]","[1, 1, 1]","[0, 0, 0]","[0, 0, 0]","[6.3747132000000875, 26.35762890000001, 39.32403650000015]",0.012084660000027725,39.3358155599999,['A3'],['B1'],['C1'],['blue'],['salmon'],['yellow'],822.0350219,None,5.0,5.9301995999999235,822.0350219,None,846.3847212000001,None,9.0,3.5148188000000573,834.9680716999999,None,7.0,11.564692400000013,828.1015947999999,None,1.0,6.731065700000045,<function functionImportanceC at 0x000002621BA84268>,<function functionImportanceB at 0x000002621BA84620>,<function functionImportanceA at 0x000002621BA84158>,,,0.0,4.031418699999904,8.0,3.5148188000000573,2.0,11.664562500000102,<function functiondiffB at 0x000002621BA849D8>,<function functiondiffA at 0x000002621BA84378>,<function functiondiffC at 0x000002621BE09400>,,,,,782.2290550999999,865.6006493,None,861.5505797999999,None,849.9010845999999,None,15,001,2022_Jul_19_0903,2leo,2021.2.3,59.965411950381636,
3,27,Plan what festival to visit with your friends,Stimuli/27A1.jpg,Stimuli/27A2.jpg,Stimuli/27A3.jpg,Stimuli/27B1.jpg,Stimuli/27B2.jpg,Stimuli/27B3.jpg,Stimuli/27C1.jpg,Stimuli/27C2.jpg,Stimuli/27C3.jpg,,,,,0,5,5,27,,,,,,,,870.2838334999999,None,871.2837522,None,877.283657,None,"[-0.203, -0.347]","[-0.2, 0.346]","[0.399, -0.003]","[0.304, -0.26]","[-0.378, -0.136]","[0.07, 0.393]","[0.066, -0.395]","[-0.377, 0.138]","[0.306, 0.255]",,31.65181086000007,9.953218859999879,28.052434559999938,"[0.075, 0.27037037037037037, 0.4083333333333333]","[0.3648148148148148, 0.1935185185185185, 0.028703703703703703]","[1, 1, 1]","[0, 0, 0]","[0, 0, 0]","[9.95035729999995, 28.049299699999892, 31.64921749999985]",0.0019975600000634586,31.65115326,['A3'],['B3'],['C3'],['yellow'],['blue'],['salmon'],910.5655773000001,None,6.0,4.43046070000014,910.5655773000001,None,915.0489969,None,10.0,10.331354899999951,930.7986223,None,6.0,3.4986014999999497,925.4156121000001,None,2.0,5.364574299999958,<function functionImportanceA at 0x000002621BE09158>,<function functionImportanceC at 0x000002621BE09950>,<function functionImportanceB at 0x000002621BE09378>,,,1.0,6.0642219999999725,7.0,10.331354899999951,4.0,4.53115119999984,<function functiondiffA at 0x000002621BA848C8>,<function functiondiffC at 0x000002621BE09488>,<function functiondiffB at 0x000002621BA84840>,,,,,878.4342214000001,940.3652414000001,None,934.2819122999999,None,945.2485021,None,15,001,2022_Jul_19_0903,2leo,2021.2.3,59.965411950381636,
3,25,Plan how you want to read a book in your free time ,Stimuli/25A1.jpg,Stimuli/25A2.jpg,Stimuli/25A3.jpg,Stimuli/25B1.jpg,Stimuli/25B2.jpg,Stimuli/25B3.jpg,Stimuli/25C1.jpg,Stimuli/25C2.jpg,Stimuli/25C3.jpg,,,,,0,6,6,25,,,,,,,,949.2982546000001,None,950.2982674,None,956.2981335,None,"[-0.377, 0.138]","[0.066, -0.395]","[0.306, 0.255]","[-0.378, -0.136]","[0.304, -0.26]","[0.07, 0.393]","[-0.2, 0.346]","[-0.203, -0.347]","[0.399, -0.003]",,6.812039100000447,38.36176670000032,25.478798200000256,"[-0.32592592592592595, -0.16296296296296298, 0.3]","[0.17962962962962964, -0.3814814814814815, -0.2722222222222222]","[1, 1, 1]","[0, 0, 0]","[0, 0, 0]","[6.7950135999999475, 25.46113009999999, 38.344389399999955]",0.016602500000317377,38.360748100000365,['A1'],['B2'],['C2'],['yellow'],['salmon'],['blue'],996.6133798999999,None,7.0,5.64676929999996,996.6133798999999,None,1002.3300353,None,10.0,4.964302900000121,1007.3465841,None,2.0,4.313297899999952,1011.9464765999999,None,8.0,11.514981499999976,<function functionImportanceA at 0x000002621BE09EA0>,<function functionImportanceB at 0x000002621BE09C80>,<function functionImportanceC at 0x000002621BE09E18>,,,0.0,3.0647721999998794,4.0,4.964302900000121,8.0,8.097742400000016,<function functiondiffB at 0x000002621B6049D8>,<function functiondiffC at 0x000002621B604598>,<function functiondiffA at 0x000002621A75FEA0>,,,,,957.7987166,1031.3460347999999,None,1038.7124689,None,1023.1627604999999,None,15,001,2022_Jul_19_0903,2leo,2021.2.3,59.965411950381636,
3,0,Plan a barbecue,Stimuli/0A1.jpg,Stimuli/0A2.jpg,Stimuli/0A3.jpg,Stimuli/0B1.jpg,Stimuli/0B2.jpg,Stimuli/0B3.jpg,Stimuli/0C1.jpg,Stimuli/0C2.jpg,Stimuli/0C3.jpg,,,,,0,7,7,0,,,,,,,,1041.2954533,None,1042.2956386,None,1048.2956013,None,"[0.306, 0.255]","[-0.377, 0.138]","[0.066, -0.395]","[0.07, 0.393]","[-0.378, -0.136]","[0.304, -0.26]","[0.399, -0.003]","[-0.2, 0.346]","[-0.203, -0.347]",,5.515755100000433,20.93217510000045,15.499751700000388,"[-0.3333333333333333, -0.19537037037037036, 0.07407407407407407]","[0.11481481481481481, -0.3212962962962963, 0.3990740740740741]","[1, 1, 1]","[0, 0, 0]","[0, 0, 0]","[5.5089203, 15.492342999999892, 20.92515359999993]",0.0063113000005614595,20.93141540000056,['A2'],['B1'],['C3'],['salmon'],['blue'],['yellow'],1072.2111568,None,10.0,3.53055170000016,1072.2111568,None,1092.5776119,None,10.0,4.4319192000000385,1075.7945424,None,3.0,15.431220100000019,1095.7108306,None,3.0,8.098051199999873,<function functionImportanceB at 0x000002621BE097B8>,<function functionImportanceA at 0x000002621BE09B70>,<function functionImportanceC at 0x000002621BE09620>,,,-0.0,5.047581999999693,2.0,4.4319192000000385,1.0,2.8312822000002598,<function functiondiffA at 0x000002621BE098C8>,<function functiondiffB at 0x000002621BE09730>,<function functiondiffC at 0x000002621BE09D90>,,,,,1050.8147695,1111.6936292,None,1104.2104257,None,1108.8604467999999,None,15,001,2022_Jul_19_0903,2leo,2021.2.3,59.965411950381636,
3,6,Plan your wedding,Stimuli/6A1.jpg,Stimuli/6A2.jpg,Stimuli/6A3.jpg,Stimuli/6B1.jpg,Stimuli/6B2.jpg,Stimuli/6B3.jpg,Stimuli/6C1.jpg,Stimuli/6C2.jpg,Stimuli/6C3.jpg,,,,,0,8,8,6,,,,,,,,1117.9766049999998,None,1118.9769999,None,1124.9766961999999,None,"[-0.378, -0.136]","[0.07, 0.393]","[0.304, -0.26]","[-0.377, 0.138]","[0.306, 0.255]","[0.066, -0.395]","[-0.2, 0.346]","[0.399, -0.003]","[-0.203, -0.347]",,24.65536186000054,35.20663216000048,10.906551260000924,"[-0.14444444444444443, -0.4027777777777778, -0.3490740740740741]","[-0.27870370370370373, -0.17592592592592593, 0.075]","[1, 1, 1]","[0, 0, 0]","[0, 0, 0]","[10.900122399999873, 24.649702400000024, 35.200677799999994]",0.005223560000558791,35.20466226000053,['A1'],['B1'],['C3'],['salmon'],['yellow'],['blue'],1165.9253792999998,None,3.0,5.545715299999756,1165.9253792999998,None,1178.9085356,None,8.0,8.081781899999896,1187.4748945000001,None,2.0,6.499134700000013,1172.7419215999998,None,3.0,6.1473909999999705,<function functionImportanceC at 0x000002621BE091E0>,<function functionImportanceA at 0x000002621BE09D08>,<function functionImportanceB at 0x000002621BE096A8>,,,3.0,2.9977772000002005,8.0,8.081781899999896,10.0,2.966019100000267,<function functiondiffC at 0x000002621BA84BF8>,<function functiondiffB at 0x000002621BA84D08>,<function functiondiffA at 0x000002621BE09A60>,,,,,1130.2594746999998,1192.7080517999998,None,1201.5911458,None,1198.6913381999998,None,15,001,2022_Jul_19_0903,2leo,2021.2.3,59.965411950381636,
3,39,Plan what kind of watch you want to buy,Stimuli/39A1.jpg,Stimuli/39A2.jpg,Stimuli/39A3.jpg,Stimuli/39B1.jpg,Stimuli/39B2.jpg,Stimuli/39B3.jpg,Stimuli/39C1.jpg,Stimuli/39C2.jpg,Stimuli/39C3.jpg,,,,,0,9,9,39,,,,,,,,1203.7909098999999,None,1204.7910957,None,1210.7909777999998,None,"[0.304, -0.26]","[0.07, 0.393]","[-0.378, -0.136]","[-0.203, -0.347]","[0.399, -0.003]","[-0.2, 0.346]","[0.066, -0.395]","[0.306, 0.255]","[-0.377, 0.138]",,6.632649120000224,38.29909392000036,51.88202042000057,"[0.3, -0.16018518518518518, 0.2796296296296296]","[-0.26666666666666666, 0.3638888888888889, 0.19074074074074074]","[1, 1, 1]","[0, 0, 0]","[0, 0, 0]","[6.63163029999987, 38.2976392999999, 51.8803112999999]",0.0006027200001881283,51.88089762000027,['A1'],['B3'],['C2'],['blue'],['yellow'],['salmon'],1264.3724680999999,None,2.0,3.4471709999997984,1264.3724680999999,None,1267.9226008,None,6.0,7.980803599999945,1280.1221297000002,None,8.0,4.048548600000231,1275.9723961,None,1.0,4.198576700000103,<function functionImportanceA at 0x000002621BE09840>,<function functionImportanceC at 0x000002621DE92158>,<function functionImportanceB at 0x000002621DE920D0>,,,2.0,2.3646872999997868,8.0,7.980803599999945,8.0,4.0142571999999745,<function functiondiffB at 0x000002621BA84AE8>,<function functiondiffA at 0x000002621BE090D0>,<function functiondiffC at 0x000002621BA84048>,,,,,1212.0064555,1290.5551682,None,1288.1721478999998,None,1284.1387366,None,15,001,2022_Jul_19_0903,2leo,2021.2.3,59.965411950381636,
3,22,Plan a beach day with your friends,Stimuli/22A1.jpg,Stimuli/22A2.jpg,Stimuli/22A3.jpg,Stimuli/22B1.jpg,Stimuli/22B2.jpg,Stimuli/22B3.jpg,Stimuli/22C1.jpg,Stimuli/22C2.jpg,Stimuli/22C3.jpg,,,,,0,10,10,22,,,,,,,,1296.9048913000001,None,1297.904987,None,1303.9050266999998,None,"[-0.2, 0.346]","[0.399, -0.003]","[-0.203, -0.347]","[-0.378, -0.136]","[0.07, 0.393]","[0.304, -0.26]","[-0.377, 0.138]","[0.306, 0.255]","[0.066, -0.395]",,11.906046039999637,31.755575639999734,32.27261083999974,"[0.3648148148148148, -0.35]","[0.014814814814814815, -0.0962962962962963]","[1, 1]","[0, 0]","[0, 0]","[11.893347500000345, 31.742701200000283]",0.012194339999950898,32.27143423999996,['A2'],['B1'],['C1'],['salmon'],['yellow'],['blue'],1337.8204205000002,None,9.0,8.530541399999947,1337.8204205000002,None,1370.719737,None,2.0,6.031452799999897,1346.4036706000002,None,7.0,20.313586300000225,1366.7697122999998,None,2.0,3.9499783000001116,<function functionImportanceB at 0x000002621DE92730>,<function functionImportanceC at 0x000002621DE929D8>,<function functionImportanceA at 0x000002621DE927B8>,,,0.0,5.080972499999916,1.0,6.031452799999897,5.0,5.231129199999941,<function functiondiffA at 0x000002621BE092F0>,<function functiondiffC at 0x000002621DE921E0>,<function functiondiffB at 0x000002621BE09598>,,,,,1305.0762034999998,1381.8362563,None,1376.7362279999998,None,1388.0192275,None,15,001,2022_Jul_19_0903,2leo,2021.2.3,59.965411950381636,
3,38,Plan how you want to go for a run,Stimuli/38A1.jpg,Stimuli/38A2.jpg,Stimuli/38A3.jpg,Stimuli/38B1.jpg,Stimuli/38B2.jpg,Stimuli/38B3.jpg,Stimuli/38C1.jpg,Stimuli/38C2.jpg,Stimuli/38C3.jpg,,,,,0,11,11,38,,,,,,,,1392.7688561,None,1393.769159,None,1399.7689403999998,None,"[0.306, 0.255]","[-0.377, 0.138]","[0.066, -0.395]","[0.07, 0.393]","[-0.378, -0.136]","[0.304, -0.26]","[0.399, -0.003]","[-0.2, 0.346]","[-0.203, -0.347]",,37.49942969999984,7.783599800000047,27.399976499999866,"[0.04722222222222222, -0.15925925925925927, 0.017592592592592594]","[0.32407407407407407, 0.30925925925925923, -0.3425925925925926]","[1, 1, 1]","[0, 0, 0]","[0, 0, 0]","[7.7734018000001015, 27.3895064000003, 37.48938159999989]",0.009447299999919778,37.49863120000009,['A3'],['B1'],['C2'],['yellow'],['salmon'],['blue'],1438.9842666999998,None,7.0,2.4305718999999044,1438.9842666999998,None,1441.4843666000002,None,8.0,5.397615500000029,1446.8841475999998,None,4.0,3.3483306000002813,1450.3508315999998,None,9.0,3.631902199999786,<function functionImportanceA at 0x000002621DE92A60>,<function functionImportanceB at 0x000002621DE92AE8>,<function functionImportanceC at 0x000002621DE92840>,,,3.0,14.04779520000011,9.0,5.397615500000029,1.0,6.4644487999999,<function functiondiffC at 0x000002621BE09BF8>,<function functiondiffB at 0x000002621BE09048>,<function functiondiffA at 0x000002621BE099D8>,,,,,1401.0105349,1453.9005782,None,1463.133726,None,1456.6506718,None,15,001,2022_Jul_19_0903,2leo,2021.2.3,59.965411950381636,
3,5,Plan a birthday party for your younger self when you turn eight,Stimuli/5A1.jpg,Stimuli/5A2.jpg,Stimuli/5A3.jpg,Stimuli/5B1.jpg,Stimuli/5B2.jpg,Stimuli/5B3.jpg,Stimuli/5C1.jpg,Stimuli/5C2.jpg,Stimuli/5C3.jpg,,,,,0,12,12,5,,,,,,,,1476.6998121000001,None,1477.6999815,None,1483.699931,None,"[0.399, -0.003]","[-0.2, 0.346]","[-0.203, -0.347]","[0.07, 0.393]","[-0.378, -0.136]","[0.304, -0.26]","[0.306, 0.255]","[-0.377, 0.138]","[0.066, -0.395]",,47.42705938000154,15.561517580001691,5.662170580001657,"[0.024074074074074074, -0.41944444444444445, -0.18333333333333332]","[-0.3574074074074074, -0.1175925925925926, 0.30648148148148147]","[1, 1, 1]","[0, 0, 0]","[0, 0, 0]","[5.6582266000000345, 15.557933699999921, 47.4237277000002]",0.002798880001591897,47.42629298000156,['A2'],['B2'],['C3'],['salmon'],['blue'],['yellow'],1537.5982485,None,6.0,4.613931599999887,1537.5982485,None,1550.4646533,None,2.0,20.83142379999981,1570.2804495999999,None,3.0,4.2152812000003905,1542.8994929,None,9.0,5.5969835000000785,<function functionImportanceC at 0x000002621BE09AE8>,<function functionImportanceA at 0x000002621DE92BF8>,<function functionImportanceB at 0x000002621B6040D0>,,,9.0,8.714779500000077,-0.0,20.83142379999981,3.0,3.181635500000084,<function functiondiffC at 0x000002621DE926A8>,<function functiondiffA at 0x000002621BE09F28>,<function functiondiffB at 0x000002621DE92950>,,,,,1489.7093097000002,1573.063975,None,1576.9307880000001,None,1585.263664,None,15,001,2022_Jul_19_0903,2leo,2021.2.3,59.965411950381636,
3,35,Plan how you want to do your grocery shopping ,Stimuli/35A1.jpg,Stimuli/35A2.jpg,Stimuli/35A3.jpg,Stimuli/35B1.jpg,Stimuli/35B2.jpg,Stimuli/35B3.jpg,Stimuli/35C1.jpg,Stimuli/35C2.jpg,Stimuli/35C3.jpg,,,,,0,13,13,35,,,,,,,,1587.613363,None,1588.6136317,None,1594.6134619999998,None,"[0.304, -0.26]","[0.07, 0.393]","[-0.378, -0.136]","[-0.203, -0.347]","[0.399, -0.003]","[-0.2, 0.346]","[0.066, -0.395]","[0.306, 0.255]","[-0.377, 0.138]",,40.697895119999885,13.832480120000127,67.84804901999996,"[-0.1814814814814815, 0.2740740740740741, 0.3527777777777778]","[-0.3925925925925926, -0.20925925925925926, 0.2]","[1, 1, 1]","[0, 0, 0]","[0, 0, 0]","[13.831075900000087, 40.69673330000023, 67.84632280000005]",0.0007063200000629877,67.84650112000008,['A1'],['B1'],['C2'],['yellow'],['salmon'],['blue'],1664.2445211,None,9.0,4.747007599999961,1664.2445211,None,1669.1617599,None,6.0,5.797789799999919,1681.3442623,None,10.0,4.047974799999793,1674.8945052999998,None,4.0,6.331918200000018,<function functionImportanceA at 0x000002621BA846A8>,<function functionImportanceC at 0x000002621E4CE9D8>,<function functionImportanceB at 0x000002621B604620>,,,8.0,3.8980643999998392,1.0,5.797789799999919,1.0,7.597247700000025,<function functiondiffC at 0x000002621DE92598>,<function functiondiffA at 0x000002621DE922F0>,<function functiondiffB at 0x000002621DE92488>,,,,,1595.9154574999998,1685.2441468000002,None,1695.6438180999999,None,1699.5769706,None,15,001,2022_Jul_19_0903,2leo,2021.2.3,59.965411950381636,
3,34,Plan what car you want to buy,Stimuli/34A1.jpg,Stimuli/34A2.jpg,Stimuli/34A3.jpg,Stimuli/34B1.jpg,Stimuli/34B2.jpg,Stimuli/34B3.jpg,Stimuli/34C1.jpg,Stimuli/34C2.jpg,Stimuli/34C3.jpg,,,,,0,14,14,34,,,,,,,,1706.6766388,None,1707.6769681,None,1713.6768708999998,None,"[0.399, -0.003]","[-0.203, -0.347]","[-0.2, 0.346]","[0.07, 0.393]","[0.304, -0.26]","[-0.378, -0.136]","[0.306, 0.255]","[0.066, -0.395]","[-0.377, 0.138]",,13.13590874000056,15.437008140000671,23.953016640000442,"[0.4222222222222222, -0.35462962962962963, 0.10185185185185185]","[-0.041666666666666664, -0.10185185185185185, -0.4046296296296296]","[1, 1, 1]","[0, 0, 0]","[0, 0, 0]","[13.132892499999798, 15.433582699999988, 23.949389699999756]",0.002577240000391612,23.951918840000417,['A1'],['B3'],['C2'],['yellow'],['blue'],['salmon'],1741.2256999,None,8.0,2.4803062999999383,1741.2256999,None,1750.475469,None,10.0,4.415219999999863,1754.8587158,None,7.0,3.9152391000002353,1743.7758121000002,None,4.0,5.681111599999895,<function functionImportanceC at 0x000002621E4CEB70>,<function functionImportanceA at 0x000002621E4CEE18>,<function functionImportanceB at 0x000002621E4CE488>,,,0.0,3.3977648999998564,3.0,4.415219999999863,3.0,3.214282599999933,<function functiondiffB at 0x000002621E4CE400>,<function functiondiffC at 0x000002621E4CE8C8>,<function functiondiffA at 0x000002621E4CE598>,,,,,1716.8078251000002,1761.0420083999998,None,1767.8583436999998,None,1758.0587073000002,None,15,001,2022_Jul_19_0903,2leo,2021.2.3,59.965411950381636,
3,20,Plan a tea party with your friends,Stimuli/20A1.jpg,Stimuli/20A2.jpg,Stimuli/20A3.jpg,Stimuli/20B1.jpg,Stimuli/20B2.jpg,Stimuli/20B3.jpg,Stimuli/20C1.jpg,Stimuli/20C2.jpg,Stimuli/20C3.jpg,,,,,0,15,15,20,,,,,,,,1867.3057548000002,None,1868.3057413000001,None,1874.3057678,None,"[0.399, -0.003]","[-0.203, -0.347]","[-0.2, 0.346]","[0.306, 0.255]","[0.066, -0.395]","[-0.377, 0.138]","[0.07, 0.393]","[0.304, -0.26]","[-0.378, -0.136]",,55.503328520001105,16.070846620001248,47.70418912000105,"[0.30092592592592593, 0.30833333333333335, -0.17685185185185184]","[0.3111111111111111, -0.21203703703703702, 0.2953703703703704]","[1, 1, 1]","[0, 0, 0]","[0, 0, 0]","[16.056231600000046, 47.689227500000015, 55.488805500000126]",0.013936220001141919,55.50254572000131,['A3'],['B1'],['C2'],['blue'],['yellow'],['salmon'],1933.9202168000002,None,2.0,4.69681300000002,1933.9202168000002,None,1953.7362876000002,None,7.0,4.798226200000045,1941.1042972,None,7.0,4.73045140000022,1943.4197675,None,4.0,10.231601899999987,<function functionImportanceB at 0x000002621E4CE840>,<function functionImportanceC at 0x0000026222CCD510>,<function functionImportanceA at 0x000002621E4CED90>,,,7.0,2.7647995000002084,10.0,4.798226200000045,5.0,3.748060500000065,<function functiondiffC at 0x000002621E4CE730>,<function functiondiffA at 0x000002621DE92400>,<function functiondiffB at 0x000002621DE92D08>,,,,,1877.9637506999998,1958.4699277999998,None,1966.2529011000001,None,1969.6027212,None,15,001,2022_Jul_19_0903,2leo,2021.2.3,59.965411950381636,
3,1,Plan how to study for an exam,Stimuli/1A1.jpg,Stimuli/1A2.jpg,Stimuli/1A3.jpg,Stimuli/1B1.jpg,Stimuli/1B2.jpg,Stimuli/1B3.jpg,Stimuli/1C1.jpg,Stimuli/1C2.jpg,Stimuli/1C3.jpg,,,,,0,16,16,1,,,,,,,,1972.3191212000002,None,1973.3195256999998,None,1979.3193010999998,None,"[-0.2, 0.346]","[-0.203, -0.347]","[0.399, -0.003]","[-0.378, -0.136]","[0.304, -0.26]","[0.07, 0.393]","[-0.377, 0.138]","[0.066, -0.395]","[0.306, 0.255]",,43.540608819999306,31.95758751999938,22.175079419999292,"[0.08148148148148149, -0.33796296296296297, -0.21851851851851853]","[-0.32407407407407407, -0.13425925925925927, -0.3861111111111111]","[1, 1, 1]","[0, 0, 0]","[0, 0, 0]","[22.169374600000083, 31.952235900000233, 43.535431600000265]",0.004680419999658625,43.53990551999959,['A2'],['B1'],['C2'],['yellow'],['salmon'],['blue'],2024.4675336999999,None,9.0,1.8468830000001617,2024.4675336999999,None,2032.1343283,None,4.0,2.9651637000001756,2026.4345359,None,8.0,3.03125080000018,2029.4010675999998,None,7.0,2.6820578999995632,<function functionImportanceB at 0x000002621E4CE268>,<function functionImportanceC at 0x000002621DE92EA0>,<function functionImportanceA at 0x000002621E4CED08>,,,1.0,3.9478360000002795,2.0,2.9651637000001756,-0.0,2.5643863000000238,<function functiondiffC at 0x000002621E4CE0D0>,<function functiondiffA at 0x000002621DE92510>,<function functiondiffB at 0x000002621E4CE7B8>,,,,,1980.4482011,2035.0675915000002,None,2038.9008445999998,None,2042.8671542000002,None,15,001,2022_Jul_19_0903,2leo,2021.2.3,59.965411950381636,
3,31,Plan your order at a restaurant    ,Stimuli/31A1.jpg,Stimuli/31A2.jpg,Stimuli/31A3.jpg,Stimuli/31B1.jpg,Stimuli/31B2.jpg,Stimuli/31B3.jpg,Stimuli/31C1.jpg,Stimuli/31C2.jpg,Stimuli/31C3.jpg,,,,,0,17,17,31,,,,,,,,2044.9504265,None,2045.9508052,None,2051.9505232,None,"[0.066, -0.395]","[0.306, 0.255]","[-0.377, 0.138]","[-0.203, -0.347]","[0.399, -0.003]","[-0.2, 0.346]","[0.304, -0.26]","[0.07, 0.393]","[-0.378, -0.136]",,22.799263480000263,16.13297948000036,27.38328618000014,"[0.3814814814814815, 0.10555555555555556, 0.08333333333333333]","[0.024074074074074074, -0.3175925925925926, 0.40555555555555556]","[1, 1, 1]","[0, 0, 0]","[0, 0, 0]","[16.116783899999973, 22.783436600000186, 27.366863100000046]",0.015410080000492599,27.381978580000577,['A1'],['B2'],['C2'],['yellow'],['blue'],['salmon'],2082.4162035,None,8.0,3.2469633000000613,2082.4162035,None,2091.9158767999998,None,1.0,4.631698899999719,2085.7327722,None,9.0,4.764649100000042,2095.1992895,None,8.0,3.665200999999797,<function functionImportanceB at 0x0000026222CCDC80>,<function functionImportanceA at 0x000002621DE92E18>,<function functionImportanceC at 0x0000026222CCD730>,,,7.0,5.247551299999941,1.0,4.631698899999719,1.0,8.897830600000361,<function functiondiffA at 0x000002621E4CE950>,<function functiondiffB at 0x000002621E4CE510>,<function functiondiffC at 0x0000026222CCD9D8>,,,,,2054.5824432,2112.9987646,None,2099.1490171,None,2104.0823419,None,15,001,2022_Jul_19_0903,2leo,2021.2.3,59.965411950381636,
3,44,Plan a party at your place,Stimuli/44A1.jpg,Stimuli/44A2.jpg,Stimuli/44A3.jpg,Stimuli/44B1.jpg,Stimuli/44B2.jpg,Stimuli/44B3.jpg,Stimuli/44C1.jpg,Stimuli/44C2.jpg,Stimuli/44C3.jpg,,,,,0,18,18,44,,,,,,,,2118.6150102,None,2119.6152175,None,2125.6151271,None,"[-0.2, 0.346]","[-0.203, -0.347]","[0.399, -0.003]","[-0.378, -0.136]","[0.304, -0.26]","[0.07, 0.393]","[-0.377, 0.138]","[0.066, -0.395]","[0.306, 0.255]",,20.17817924000019,31.027919539999857,24.61201454000002,"[-0.1824074074074074, -0.000925925925925926, -0.41574074074074074]","[-0.30648148148148147, -0.34074074074074073, -0.12777777777777777]","[1, 1, 1]","[0, 0, 0]","[0, 0, 0]","[20.162671200000204, 24.595920500000375, 31.012231100000008]",0.015004339999904914,31.027021540000078,['A2'],['B1'],['C2'],['yellow'],['blue'],['salmon'],2158.2806579,None,8.0,2.4640322000000197,2158.2806579,None,2160.8305558,None,9.0,4.414051299999755,2165.2471095,None,7.0,6.148190800000066,2171.4137411,None,2.0,3.7150125000002845,<function functionImportanceA at 0x0000026222CCD158>,<function functionImportanceB at 0x0000026222CCDEA0>,<function functionImportanceC at 0x0000026222CCD268>,,,6.0,3.781265600000097,1.0,4.414051299999755,2.0,3.2980781000001116,<function functiondiffA at 0x000002621E4CEEA0>,<function functiondiffB at 0x000002621E4CE158>,<function functiondiffC at 0x000002621E4CEA60>,,,,,2126.7838783,2182.2300953,None,2175.1135652,None,2178.9135985,None,15,001,2022_Jul_19_0903,2leo,2021.2.3,59.965411950381636,
3,43,Plan your dream house,Stimuli/43A1.jpg,Stimuli/43A2.jpg,Stimuli/43A3.jpg,Stimuli/43B1.jpg,Stimuli/43B2.jpg,Stimuli/43B3.jpg,Stimuli/43C1.jpg,Stimuli/43C2.jpg,Stimuli/43C3.jpg,,,,,0,19,19,43,,,,,,,,2187.2128871,None,2188.2130856,None,2194.21318,None,"[-0.377, 0.138]","[0.306, 0.255]","[0.066, -0.395]","[-0.378, -0.136]","[0.07, 0.393]","[0.304, -0.26]","[-0.2, 0.346]","[0.399, -0.003]","[-0.203, -0.347]",,8.217144039999766,15.450411439999698,23.31685293999999,"[0.06481481481481481, 0.31666666666666665, 0.3712962962962963]","[-0.3472222222222222, -0.22407407407407406, -0.001851851851851852]","[1, 1, 1]","[0, 0, 0]","[0, 0, 0]","[8.215695300000334, 15.448774299999968, 23.315150200000062]",0.0007018399996923108,23.315498939999998,['A3'],['B3'],['C2'],['blue'],['salmon'],['yellow'],2219.1954673,None,10.0,7.163789100000031,2219.1954673,None,2226.4455518,None,9.0,4.11405109999987,2230.5454912,None,5.0,3.9986821000002237,2234.5619479,None,9.0,3.814789699999892,<function functionImportanceA at 0x000002621E4CE6A8>,<function functionImportanceB at 0x000002621E4CEC80>,<function functionImportanceC at 0x000002621E4CE378>,,,1.0,4.514419900000121,2.0,4.11405109999987,1.0,2.497770099999798,<function functiondiffA at 0x000002621E4CEF28>,<function functiondiffB at 0x000002621E4CE620>,<function functiondiffC at 0x0000026222CCD7B8>,,,,,2195.3944879,2245.4283052,None,2238.3785138,None,2242.9118773,None,15,001,2022_Jul_19_0903,2leo,2021.2.3,59.965411950381636,
3,19,Plan how you want your garden to look like,Stimuli/19A1.jpg,Stimuli/19A2.jpg,Stimuli/19A3.jpg,Stimuli/19B1.jpg,Stimuli/19B2.jpg,Stimuli/19B3.jpg,Stimuli/19C1.jpg,Stimuli/19C2.jpg,Stimuli/19C3.jpg,,,,,0,20,20,19,,,,,,,,2247.0111722,None,2248.0115837,None,2254.0115142,None,"[0.07, 0.393]","[0.304, -0.26]","[-0.378, -0.136]","[0.306, 0.255]","[0.066, -0.395]","[-0.377, 0.138]","[0.399, -0.003]","[-0.203, -0.347]","[-0.2, 0.346]",,20.305775480000648,24.45589738000035,17.30640108000034,"[-0.1361111111111111, 0.24814814814814815, -0.32037037037037036]","[0.31574074074074077, -0.23055555555555557, 0.11203703703703703]","[1, 1, 1]","[0, 0, 0]","[0, 0, 0]","[17.29066079999984, 20.290688600000067, 24.44043180000017]",0.014596980000533222,24.45483418000049,['A2'],['B3'],['C3'],['salmon'],['blue'],['yellow'],2282.5604985,None,6.0,2.3136586000000534,2282.5604985,None,2284.9604058,None,7.0,5.698046599999998,2296.1767601,None,4.0,5.8648613999998815,2291.9970542,None,7.0,4.398696799999925,<function functionImportanceA at 0x0000026222CCDD08>,<function functionImportanceC at 0x0000026222CCD378>,<function functionImportanceB at 0x0000026222CCDA60>,,,0.0,6.4806752999998025,2.0,5.698046599999998,8.0,7.398175599999831,<function functiondiffA at 0x0000026222CCDB70>,<function functiondiffB at 0x0000026222CCDBF8>,<function functiondiffC at 0x0000026222CCD6A8>,,,,,2257.6550447,2315.2096351,None,2300.9433893,None,2307.6766329,None,15,001,2022_Jul_19_0903,2leo,2021.2.3,59.965411950381636,
3,36,Plan your shopping for new clothing,Stimuli/36A1.jpg,Stimuli/36A2.jpg,Stimuli/36A3.jpg,Stimuli/36B1.jpg,Stimuli/36B2.jpg,Stimuli/36B3.jpg,Stimuli/36C1.jpg,Stimuli/36C2.jpg,Stimuli/36C3.jpg,,,,,0,21,21,36,,,,,,,,2318.9926816,None,2319.9929805,None,2325.9928894,None,"[0.07, 0.393]","[-0.378, -0.136]","[0.304, -0.26]","[0.399, -0.003]","[-0.2, 0.346]","[-0.203, -0.347]","[0.306, 0.255]","[-0.377, 0.138]","[0.066, -0.395]",,19.245752999999695,45.079590299999836,23.12945239999999,"[0.23703703703703705, -0.3509259259259259, -0.1925925925925926]","[-0.22962962962962963, 0.13240740740740742, 0.28055555555555556]","[1, 1, 1]","[0, 0, 0]","[0, 0, 0]","[19.23820569999998, 23.121464800000012, 45.07190870000022]",0.006925599999703991,45.07773339999994,['A3'],['B2'],['C2'],['blue'],['yellow'],['salmon'],2372.7078005,None,3.0,6.179126300000007,2372.7078005,None,2382.3077496,None,8.0,4.848554700000022,2387.1909478,None,7.0,5.581574400000136,2379.0079039,None,9.0,3.3308953000000656,<function functionImportanceC at 0x000002621DE92B70>,<function functionImportanceA at 0x000002621DE92268>,<function functionImportanceB at 0x000002621DE92F28>,,,2.0,4.248035099999925,3.0,4.848554700000022,10.0,6.547916200000145,<function functiondiffB at 0x0000026222CCD0D0>,<function functiondiffA at 0x000002621BE09510>,<function functiondiffC at 0x0000026222CCD1E0>,,,,,2327.152106,2403.5571237999998,None,2399.3071714,None,2392.7409466999998,None,15,001,2022_Jul_19_0903,2leo,2021.2.3,59.965411950381636,
3,17,Plan a day in Barcelona with a friend who is new to the city,Stimuli/17A1.jpg,Stimuli/17A2.jpg,Stimuli/17A3.jpg,Stimuli/17B1.jpg,Stimuli/17B2.jpg,Stimuli/17B3.jpg,Stimuli/17C1.jpg,Stimuli/17C2.jpg,Stimuli/17C3.jpg,,,,,0,22,22,17,,,,,,,,2407.4902011,None,2408.4904518,None,2414.4902797,None,"[-0.2, 0.346]","[-0.203, -0.347]","[0.399, -0.003]","[-0.378, -0.136]","[0.304, -0.26]","[0.07, 0.393]","[-0.377, 0.138]","[0.066, -0.395]","[0.306, 0.255]",,45.99900327999967,10.049670679999963,36.015923179999845,"[0.26944444444444443, 0.10648148148148148, 0.38796296296296295]","[-0.22870370370370371, -0.36666666666666664, -0.030555555555555555]","[1, 1, 1]","[0, 0, 0]","[0, 0, 0]","[10.03990849999991, 36.0058896999999, 45.98947449999969]",0.0089545799996813,45.99794057999998,['A3'],['B2'],['C2'],['salmon'],['blue'],['yellow'],2462.1552032,None,4.0,6.563160300000163,2462.1552032,None,2472.3885575,None,9.0,6.398562200000015,2468.7885596,None,2.0,3.547917399999733,2478.7722447,None,4.0,3.880124799999976,<function functionImportanceB at 0x0000026222CCDF28>,<function functionImportanceA at 0x000002621E4CE048>,<function functionImportanceC at 0x0000026222CCDE18>,,,9.0,2.9479934999999386,7.0,6.398562200000015,1.0,3.114653499999804,<function functiondiffC at 0x0000026222CCDAE8>,<function functiondiffB at 0x0000026222CCD840>,<function functiondiffA at 0x000002621DE92C80>,,,,,2415.6815831999997,2482.6384664,None,2489.5048637,None,2486.3716028,None,15,001,2022_Jul_19_0903,2leo,2021.2.3,59.965411950381636,
3,37,Plan your cleaning routine ,Stimuli/37A1.jpg,Stimuli/37A2.jpg,Stimuli/37A3.jpg,Stimuli/37B1.jpg,Stimuli/37B2.jpg,Stimuli/37B3.jpg,Stimuli/37C1.jpg,Stimuli/37C2.jpg,Stimuli/37C3.jpg,,,,,0,23,23,37,,,,,,,,2491.9709417,None,2492.9715974,None,2498.97138,None,"[0.304, -0.26]","[0.07, 0.393]","[-0.378, -0.136]","[-0.203, -0.347]","[0.399, -0.003]","[-0.2, 0.346]","[0.066, -0.395]","[0.306, 0.255]","[-0.377, 0.138]",,16.356990759999917,46.18962025999963,52.47267245999956,"[-0.3537037037037037, -0.18518518518518517, 0.09351851851851851]","[-0.1175925925925926, -0.30277777777777776, -0.4222222222222222]","[1, 1, 1]","[0, 0, 0]","[0, 0, 0]","[16.343872700000247, 46.176436900000226, 52.45926039999995]",0.012478459999783809,52.471535259999655,['A3'],['B1'],['C1'],['blue'],['yellow'],['salmon'],2553.0532539,None,5.0,2.413322700000208,2553.0532539,None,2559.1695606,None,9.0,3.3650674999998955,2562.5361703,None,1.0,2.881662199999937,2555.5195651,None,3.0,3.614403399999901,<function functionImportanceC at 0x00000262235CC048>,<function functionImportanceA at 0x0000026222CCD598>,<function functionImportanceB at 0x00000262235CC158>,,,6.0,12.463908100000026,8.0,3.3650674999998955,3.0,4.9980876999998145,<function functiondiffA at 0x0000026222CCD048>,<function functiondiffC at 0x00000262235CC268>,<function functiondiffB at 0x0000026222CCD8C8>,,,,,2500.1092869,2577.9024197,None,2565.4193297,None,2581.6522902,None,15,001,2022_Jul_19_0903,2leo,2021.2.3,59.965411950381636,
3,4,Plan a game night at your place,Stimuli/4A1.jpg,Stimuli/4A2.jpg,Stimuli/4A3.jpg,Stimuli/4B1.jpg,Stimuli/4B2.jpg,Stimuli/4B3.jpg,Stimuli/4C1.jpg,Stimuli/4C2.jpg,Stimuli/4C3.jpg,,,,,0,24,24,4,,,,,,,,2586.1685916,None,2587.1688576,None,2593.1686205,None,"[0.306, 0.255]","[-0.377, 0.138]","[0.066, -0.395]","[0.399, -0.003]","[-0.2, 0.346]","[-0.203, -0.347]","[0.07, 0.393]","[-0.378, -0.136]","[0.304, -0.26]",,19.814694620000864,7.165559120001035,4.698829320001096,"[0.028703703703703703, -0.17962962962962964, 0.24074074074074073]","[0.39444444444444443, -0.26944444444444443, 0.19907407407407407]","[1, 1, 1]","[0, 0, 0]","[0, 0, 0]","[4.696445900000072, 7.163288199999897, 19.81287740000016]",0.0014039200009392516,19.81393332000107,['A1'],['B3'],['C1'],['salmon'],['yellow'],['blue'],2616.867819,None,10.0,4.363729899999726,2616.867819,None,2633.1673918,None,1.0,8.114881499999683,2629.0842089,None,5.0,3.064876500000082,2622.5862136,None,10.0,7.797520600000098,<function functionImportanceC at 0x00000262235CC950>,<function functionImportanceB at 0x00000262235CC510>,<function functionImportanceA at 0x00000262235CC400>,,,6.0,6.247989199999665,-0.0,8.114881499999683,1.0,2.564816999999948,<function functiondiffC at 0x000002621E4CEAE8>,<function functiondiffB at 0x0000026222CCD950>,<function functiondiffA at 0x0000026222CCD400>,,,,,2596.5884684,2640.6338286,None,2649.5168257,None,2646.6005044,None,15,001,2022_Jul_19_0903,2leo,2021.2.3,59.965411950381636,
3,7,Plan your Sunday breakfast ,Stimuli/7A1.jpg,Stimuli/7A2.jpg,Stimuli/7A3.jpg,Stimuli/7B1.jpg,Stimuli/7B2.jpg,Stimuli/7B3.jpg,Stimuli/7C1.jpg,Stimuli/7C2.jpg,Stimuli/7C3.jpg,,,,,0,25,25,7,,,,,,,,2654.9666331,None,2655.9665582,None,2661.9665312,None,"[-0.203, -0.347]","[-0.2, 0.346]","[0.399, -0.003]","[0.066, -0.395]","[-0.377, 0.138]","[0.306, 0.255]","[0.304, -0.26]","[-0.378, -0.136]","[0.07, 0.393]",,13.06590942000139,3.9328268200015373,8.216643320001367,"[-0.3472222222222222, 0.037037037037037035, 0.4462962962962963]","[0.10092592592592593, 0.35555555555555557, 0.04722222222222222]","[1, 1, 1]","[0, 0, 0]","[0, 0, 0]","[3.927030100000138, 8.210534700000153, 13.060301699999854]",0.0050128200014114555,13.065051120001499,['A3'],['B2'],['C3'],['yellow'],['blue'],['salmon'],2681.5159592,None,10.0,1.913430900000094,2681.5159592,None,2685.2824678,None,6.0,6.7978667999996105,2692.1654212,None,9.0,4.098353000000316,2695.6989022,None,1.0,11.531863000000158,<function functionImportanceA at 0x00000262235CC1E0>,<function functionImportanceB at 0x00000262235CCEA0>,<function functionImportanceC at 0x00000262235CC2F0>,,,0.0,4.3142204000000675,2.0,6.7978667999996105,2.0,3.397675700000036,<function functiondiffA at 0x0000026222CCD2F0>,<function functiondiffB at 0x0000026222CCD620>,<function functiondiffC at 0x0000026222CCDD90>,,,,,2667.9897668,2714.0485662,None,2706.4820831,None,2710.9318327,None,15,001,2022_Jul_19_0903,2leo,2021.2.3,59.965411950381636,
3,26,Plan how to wash one round of your laundry ,Stimuli/26A1.jpg,Stimuli/26A2.jpg,Stimuli/26A3.jpg,Stimuli/26B1.jpg,Stimuli/26B2.jpg,Stimuli/26B3.jpg,Stimuli/26C1.jpg,Stimuli/26C2.jpg,Stimuli/26C3.jpg,,,,,0,26,26,26,,,,,,,,2717.0646034,None,2718.0652276,None,2724.0646914999998,None,"[0.066, -0.395]","[0.306, 0.255]","[-0.377, 0.138]","[0.304, -0.26]","[0.07, 0.393]","[-0.378, -0.136]","[-0.203, -0.347]","[0.399, -0.003]","[-0.2, 0.346]",,35.98480523999979,10.419250939999984,29.702415839999958,"[0.08796296296296297, 0.35555555555555557, 0.28703703703703703]","[0.34444444444444444, 0.026851851851851852, 0.2388888888888889]","[1, 1, 1]","[0, 0, 0]","[0, 0, 0]","[10.416497499999878, 29.699345199999698, 35.982221299999765]",0.0018275399997946806,35.98401853999985,['A2'],['B2'],['C2'],['blue'],['yellow'],['salmon'],2761.7135378,None,6.0,3.4304298000001836,2761.7135378,None,2768.4803348,None,2.0,6.064926900000046,2774.580055,None,7.0,5.331714700000248,2765.2302791,None,2.0,3.2145034999998643,<function functionImportanceC at 0x00000262235CC6A8>,<function functionImportanceA at 0x00000262235CCE18>,<function functionImportanceB at 0x00000262235CCB70>,,,2.0,2.681267200000093,9.0,6.064926900000046,0.0,2.431364399999893,<function functiondiffC at 0x00000262235CCF28>,<function functiondiffA at 0x00000262235CC9D8>,<function functiondiffB at 0x00000262235CC7B8>,,,,,2725.2502938,2779.8467066,None,2783.6964755,None,2786.3964382999998,None,15,001,2022_Jul_19_0903,2leo,2021.2.3,59.965411950381636,
3,3,Plan a movie night with a friend,Stimuli/3A1.jpg,Stimuli/3A2.jpg,Stimuli/3A3.jpg,Stimuli/3B1.jpg,Stimuli/3B2.jpg,Stimuli/3B3.jpg,Stimuli/3C1.jpg,Stimuli/3C2.jpg,Stimuli/3C3.jpg,,,,,0,27,27,3,,,,,,,,2788.3459291,None,2789.3462292,None,2795.3462257,None,"[0.306, 0.255]","[-0.377, 0.138]","[0.066, -0.395]","[0.07, 0.393]","[-0.378, -0.136]","[0.304, -0.26]","[0.399, -0.003]","[-0.2, 0.346]","[-0.203, -0.347]",,8.226227000001018,22.642589300000964,15.459778100001131,"[0.046296296296296294, -0.21203703703703702, 0.2564814814814815]","[-0.33055555555555555, -0.3175925925925926, -0.21574074074074073]","[1, 1, 1]","[0, 0, 0]","[0, 0, 0]","[8.209349199999906, 15.44239299999981, 22.625475899999856]",0.016224600000896316,22.64163950000102,['A3'],['B3'],['C3'],['salmon'],['blue'],['yellow'],2822.0452603,None,7.0,2.5968643000001066,2822.0452603,None,2837.0949584,None,10.0,4.28150689999984,2833.595182,None,9.0,4.198262200000045,2826.412049,None,1.0,8.147599000000355,<function functionImportanceC at 0x0000026223BEC0D0>,<function functionImportanceB at 0x0000026223BEC510>,<function functionImportanceA at 0x00000262235CCD90>,,,7.0,7.964645099999871,4.0,4.28150689999984,2.0,4.081152899999779,<function functiondiffB at 0x000002621DE92048>,<function functiondiffC at 0x00000262235CCA60>,<function functiondiffA at 0x000002621DE92D90>,,,,,2798.9535024,2845.8113547,None,2849.1279334,None,2841.7283359,None,15,001,2022_Jul_19_0903,2leo,2021.2.3,59.965411950381636,
3,15,Plan your own Pasta for lunch,Stimuli/15A1.jpg,Stimuli/15A2.jpg,Stimuli/15A3.jpg,Stimuli/15B1.jpg,Stimuli/15B2.jpg,Stimuli/15B3.jpg,Stimuli/15C1.jpg,Stimuli/15C2.jpg,Stimuli/15C3.jpg,,,,,0,28,28,15,,,,,,,,2856.6106489,None,2857.6108889,None,2863.6108822,None,"[-0.378, -0.136]","[0.07, 0.393]","[0.304, -0.26]","[-0.2, 0.346]","[0.399, -0.003]","[-0.203, -0.347]","[-0.377, 0.138]","[0.306, 0.255]","[0.066, -0.395]",,4.181772160000037,29.48100376000002,8.115243460000329,"[0.04722222222222222, 0.3037037037037037, 0.3907407407407407]","[0.3490740740740741, 0.2324074074074074, 0.016666666666666666]","[1, 1, 1]","[0, 0, 0]","[0, 0, 0]","[4.169436900000164, 8.102385400000003, 29.468434500000058]",0.011802160000115691,29.48019076000037,['A2'],['B2'],['C2'],['yellow'],['salmon'],['blue'],2895.5430756,None,8.0,3.2141946000001553,2895.5430756,None,2902.2432553,None,8.0,2.2153134000000136,2898.8433019999998,None,7.0,3.3309755000000223,2905.1602433,None,7.0,6.481626000000233,<function functionImportanceB at 0x0000026223BECA60>,<function functionImportanceA at 0x00000262235CCD08>,<function functionImportanceC at 0x0000026223BEC598>,,,5.0,8.497394200000144,0.0,2.2153134000000136,4.0,6.764646199999788,<function functiondiffB at 0x00000262235CC488>,<function functiondiffC at 0x0000026223BEC840>,<function functiondiffA at 0x00000262235CC620>,,,,,2865.6028274,2917.8093356,None,2920.0426977,None,2910.8762472,None,15,001,2022_Jul_19_0903,2leo,2021.2.3,59.965411950381636,
3,12,Plan the ingredients to mix yourself a cocktail,Stimuli/12A1.jpg,Stimuli/12A2.jpg,Stimuli/12A3.jpg,Stimuli/12B1.jpg,Stimuli/12B2.jpg,Stimuli/12B3.jpg,Stimuli/12C1.jpg,Stimuli/12C2.jpg,Stimuli/12C3.jpg,,,,,0,29,29,12,,,,,,,,2928.0586982,None,2929.0589815,None,2935.058666,None,"[0.306, 0.255]","[-0.377, 0.138]","[0.066, -0.395]","[0.399, -0.003]","[-0.2, 0.346]","[-0.203, -0.347]","[0.07, 0.393]","[-0.378, -0.136]","[0.304, -0.26]",,22.536639339999965,23.470728539999982,23.003983340000104,"[0.2638888888888889, 0.11296296296296296, -0.125]","[0.18425925925925926, 0.3175925925925926, 0.31851851851851853]","[1, 1, 1]","[0, 0, 0]","[0, 0, 0]","[22.533516399999826, 23.000330200000008, 23.467269300000225]",0.0026857399998334586,23.469651540000086,['A1'],['B2'],['C1'],['salmon'],['blue'],['yellow'],2960.1912822,None,9.0,2.9632825999997294,2960.1912822,None,2963.2423448,None,3.0,3.8478503999999703,2969.9745816,None,8.0,2.5151292999998986,2967.1080108,None,10.0,2.8819288999998207,<function functionImportanceA at 0x0000026223BECC80>,<function functionImportanceC at 0x0000026223BEC158>,<function functionImportanceB at 0x0000026223BEC950>,,,2.0,2.7980945999997857,1.0,3.8478503999999703,1.0,4.414479700000356,<function functiondiffC at 0x0000026223BECE18>,<function functiondiffB at 0x00000262235CCAE8>,<function functiondiffA at 0x00000262235CC378>,,,,,2936.2399698,2972.491111,None,2980.757602,None,2976.3244032,None,15,001,2022_Jul_19_0903,2leo,2021.2.3,59.965411950381636,
3,41,Plan how you want to have dinner tonight ,Stimuli/41A1.jpg,Stimuli/41A2.jpg,Stimuli/41A3.jpg,Stimuli/41B1.jpg,Stimuli/41B2.jpg,Stimuli/41B3.jpg,Stimuli/41C1.jpg,Stimuli/41C2.jpg,Stimuli/41C3.jpg,,,,,0,30,30,41,,,,,,,,2997.8069632,None,2998.807209,None,3004.8071499,None,"[0.066, -0.395]","[-0.377, 0.138]","[0.306, 0.255]","[0.304, -0.26]","[-0.378, -0.136]","[0.07, 0.393]","[-0.203, -0.347]","[-0.2, 0.346]","[0.399, -0.003]",,18.48650568000039,18.020084480000605,13.353998980000597,"[0.3712962962962963, 0.2740740740740741, 0.07037037037037037]","[-0.027777777777777776, -0.22037037037037038, -0.3314814814814815]","[1, 1, 1]","[0, 0, 0]","[0, 0, 0]","[13.341234800000166, 18.007757200000015, 18.474488500000007]",0.011601780000546569,18.485782880000443,['A1'],['B1'],['C3'],['salmon'],['blue'],['yellow'],3025.1228537,None,9.0,2.5135927999999694,3025.1228537,None,3033.9060833,None,6.0,2.431742700000086,3027.7062377,None,9.0,6.164126199999828,3036.5059584,None,7.0,3.248289300000124,<function functionImportanceB at 0x0000026223BEC1E0>,<function functionImportanceA at 0x0000026223BEC268>,<function functionImportanceC at 0x0000026223BEC730>,,,3.0,3.8146299,4.0,2.431742700000086,1.0,2.2649389000002884,<function functiondiffA at 0x00000262235CCBF8>,<function functiondiffB at 0x0000026223BEC048>,<function functiondiffC at 0x0000026223BEC488>,,,,,3006.16493,3045.7223635,None,3039.5724064,None,3043.4058046,None,15,001,2022_Jul_19_0903,2leo,2021.2.3,59.965411950381636,
3,21,Plan your sandwich for lunch,Stimuli/21A1.jpg,Stimuli/21A2.jpg,Stimuli/21A3.jpg,Stimuli/21B1.jpg,Stimuli/21B2.jpg,Stimuli/21B3.jpg,Stimuli/21C1.jpg,Stimuli/21C2.jpg,Stimuli/21C3.jpg,,,,,0,31,31,21,,,,,,,,3052.738495,None,3053.7387565,None,3059.7385424,None,"[-0.377, 0.138]","[0.066, -0.395]","[0.306, 0.255]","[-0.378, -0.136]","[0.304, -0.26]","[0.07, 0.393]","[-0.2, 0.346]","[-0.203, -0.347]","[0.399, -0.003]",,22.964575499999683,27.814882399999988,31.648213199999645,"[0.03518518518518519, 0.06666666666666667, 0.3675925925925926]","[-0.3675925925925926, 0.4, 0.010185185185185186]","[1, 1, 1]","[0, 0, 0]","[0, 0, 0]","[22.955938099999912, 27.805895899999996, 31.63900479999984]",0.00808599999982107,31.64697299999989,['A2'],['B3'],['C3'],['yellow'],['blue'],['salmon'],3093.0208968,None,8.0,3.2802620000002207,3093.0208968,None,3096.371865,None,8.0,3.3810404999999264,3099.7540268,None,4.0,2.4321053999997275,3102.2374121,None,7.0,2.481661499999973,<function functionImportanceA at 0x000002621DE92378>,<function functionImportanceB at 0x000002621E4CEBF8>,<function functionImportanceC at 0x0000026223BECF28>,,,1.0,4.33116340000015,8.0,3.3810404999999264,8.0,7.24776780000002,<function functiondiffB at 0x0000026223BEC8C8>,<function functiondiffC at 0x0000026223BEC7B8>,<function functiondiffA at 0x00000262235CC0D0>,,,,,3060.895752,3111.9538215,None,3121.2704547,None,3104.6873603,None,15,001,2022_Jul_19_0903,2leo,2021.2.3,59.965411950381636,
3,9,Plan a picnic with friends,Stimuli/9A1.jpg,Stimuli/9A2.jpg,Stimuli/9A3.jpg,Stimuli/9B1.jpg,Stimuli/9B2.jpg,Stimuli/9B3.jpg,Stimuli/9C1.jpg,Stimuli/9C2.jpg,Stimuli/9C3.jpg,,,,,0,32,32,9,,,,,,,,3125.1197628,None,3126.1201811,None,3132.1200003999998,None,"[-0.2, 0.346]","[-0.203, -0.347]","[0.399, -0.003]","[-0.377, 0.138]","[0.066, -0.395]","[0.306, 0.255]","[-0.378, -0.136]","[0.304, -0.26]","[0.07, 0.393]",,29.119125320001785,5.986576820001574,11.155050320001465,"[-0.37592592592592594, 0.06296296296296296, -0.175]","[0.11018518518518519, 0.3537037037037037, -0.2833333333333333]","[1, 1, 1]","[0, 0, 0]","[0, 0, 0]","[5.981430499999988, 11.149462200000016, 29.11419810000052]",0.004421120001552481,29.11842912000202,['A2'],['B1'],['C3'],['blue'],['yellow'],['salmon'],3167.1355588,None,9.0,3.196706599999743,3167.1355588,None,3171.8855854,None,4.0,6.547912099999849,3184.601604,None,6.0,4.365644900000007,3178.4193968000004,None,3.0,6.364824700000099,<function functionImportanceA at 0x0000026223BECAE8>,<function functionImportanceC at 0x000002621E4CE2F0>,<function functionImportanceB at 0x0000026223BEC378>,,,1.0,10.06439279999995,2.0,6.547912099999849,-0.0,2.3312125000002197,<function functiondiffC at 0x00000262240F6A60>,<function functiondiffB at 0x00000262235CCC80>,<function functiondiffA at 0x0000026223BECD08>,,,,,3137.557178,3188.1700405999995,None,3198.8348462999998,None,3196.3682182999996,None,15,001,2022_Jul_19_0903,2leo,2021.2.3,59.965411950381636,
3,32,Plan how you want to relax after a workday,Stimuli/32A1.jpg,Stimuli/32A2.jpg,Stimuli/32A3.jpg,Stimuli/32B1.jpg,Stimuli/32B2.jpg,Stimuli/32B3.jpg,Stimuli/32C1.jpg,Stimuli/32C2.jpg,Stimuli/32C3.jpg,,,,,0,33,33,32,,,,,,,,3207.9340987,None,3208.9345037,None,3214.9343261,None,"[-0.203, -0.347]","[-0.2, 0.346]","[0.399, -0.003]","[0.304, -0.26]","[-0.378, -0.136]","[0.07, 0.393]","[0.066, -0.395]","[-0.377, 0.138]","[0.306, 0.255]",,24.932522060001247,16.24959976000082,27.766399860001002,"[-0.36203703703703705, -0.19722222222222222, -0.3398148148148148]","[-0.0824074074074074, 0.287962962962963, 0.1574074074074074]","[1, 1, 1]","[0, 0, 0]","[0, 0, 0]","[16.248106799999732, 24.931308599999284, 27.764641599999777]",0.0007145600011426723,27.76513446000081,['A2'],['B2'],['C2'],['yellow'],['salmon'],['blue'],3246.2665740999996,None,6.0,1.6133552000001146,3246.2665740999996,None,3259.8164233,None,4.0,4.465075699999943,3263.9828919999995,None,8.0,3.731820200000584,3247.9842887,None,3.0,10.69730350000009,<function functionImportanceC at 0x00000262235CC8C8>,<function functionImportanceA at 0x0000026223BECB70>,<function functionImportanceB at 0x0000026223BEC2F0>,,,7.0,3.2641654999997627,2.0,4.465075699999943,9.0,6.8144004000005225,<function functiondiffA at 0x0000026223BEC6A8>,<function functiondiffB at 0x0000026223BECEA0>,<function functiondiffC at 0x00000262240F6048>,,,,,3218.0342446,3276.9825874000003,None,3267.2161969000003,None,3270.3328476,None,15,001,2022_Jul_19_0903,2leo,2021.2.3,59.965411950381636,
3,2,Plan which ingredients you want to use for cooking dinner today,Stimuli/2A1.jpg,Stimuli/2A2.jpg,Stimuli/2A3.jpg,Stimuli/2B1.jpg,Stimuli/2B2.jpg,Stimuli/2B3.jpg,Stimuli/2C1.jpg,Stimuli/2C2.jpg,Stimuli/2C3.jpg,,,,,0,34,34,2,,,,,,,,3287.9485713999998,None,3288.9488525,None,3294.9488143000003,None,"[-0.2, 0.346]","[0.399, -0.003]","[-0.203, -0.347]","[-0.377, 0.138]","[0.306, 0.255]","[0.066, -0.395]","[-0.378, -0.136]","[0.07, 0.393]","[0.304, -0.26]",,12.01920710000104,15.202857600001153,4.986884200001441,"[0.023148148148148147, -0.21388888888888888, 0.3101851851851852]","[0.36203703703703705, -0.40370370370370373, 0.21203703703703702]","[1, 1, 1]","[0, 0, 0]","[0, 0, 0]","[4.978486400000293, 12.011205599999812, 15.19468980000056]",0.0073608000011518016,15.201819700001579,['A3'],['B2'],['C2'],['salmon'],['yellow'],['blue'],3316.7480506999996,None,9.0,2.613382499999716,3316.7480506999996,None,3330.6644783999996,None,6.0,6.581481299999723,3322.7309721999995,None,7.0,10.06433620000007,3336.697506,None,9.0,3.9319399000005433,<function functionImportanceB at 0x00000262240F6488>,<function functionImportanceA at 0x0000026223BECBF8>,<function functionImportanceC at 0x00000262240F6C80>,,,6.0,8.764010400000188,0.0,6.581481299999723,3.0,2.964359499999773,<function functiondiffA at 0x00000262235CC730>,<function functiondiffB at 0x0000026223BEC9D8>,<function functiondiffC at 0x00000262240F6950>,,,,,3301.0875603,3351.9639113,None,3340.3641261999996,None,3349.6138741,None,15,001,2022_Jul_19_0903,2leo,2021.2.3,59.965411950381636,
3,29,Plan a day in the mountains ,Stimuli/29A1.jpg,Stimuli/29A2.jpg,Stimuli/29A3.jpg,Stimuli/29B1.jpg,Stimuli/29B2.jpg,Stimuli/29B3.jpg,Stimuli/29C1.jpg,Stimuli/29C2.jpg,Stimuli/29C3.jpg,,,,,0,35,35,29,,,,,,,,3353.5468888,None,3354.5470289,None,3360.5470873,None,"[0.306, 0.255]","[-0.377, 0.138]","[0.066, -0.395]","[0.07, 0.393]","[-0.378, -0.136]","[0.304, -0.26]","[0.399, -0.003]","[-0.2, 0.346]","[-0.203, -0.347]",,15.25176779999947,29.40167029999975,43.418337999999494,"[-0.3925925925925926, 0.2564814814814815, -0.2574074074074074]","[0.10277777777777777, -0.22314814814814815, -0.3731481481481482]","[1, 1, 1]","[0, 0, 0]","[0, 0, 0]","[15.249110599999767, 29.398691499999586, 43.415135799999916]",0.0021031999995102524,43.416986299999735,['A2'],['B3'],['C3'],['salmon'],['yellow'],['blue'],3405.6953731999997,None,3.0,2.3630645000002914,3405.6953731999997,None,3408.2122839999997,None,8.0,3.514703300000292,3411.7288671,None,1.0,2.1817621000000145,3413.8787420000003,None,5.0,3.5813940999996703,<function functionImportanceA at 0x00000262240F69D8>,<function functionImportanceB at 0x00000262240F6510>,<function functionImportanceC at 0x00000262240F60D0>,,,7.0,2.5311817999991035,2.0,3.514703300000292,9.0,3.131095199999436,<function functiondiffB at 0x0000026222CCD488>,<function functiondiffA at 0x00000262235CC598>,<function functiondiffC at 0x00000262240F6378>,,,,,3361.795581,3423.1283663,None,3420.5951978,None,3417.4286888,None,15,001,2022_Jul_19_0903,2leo,2021.2.3,59.965411950381636,
3,42,Plan how to draw a painting ,Stimuli/42A1.jpg,Stimuli/42A2.jpg,Stimuli/42A3.jpg,Stimuli/42B1.jpg,Stimuli/42B2.jpg,Stimuli/42B3.jpg,Stimuli/42C1.jpg,Stimuli/42C2.jpg,Stimuli/42C3.jpg,,,,,0,36,36,42,,,,,,,,3424.9783616,None,3425.9783771999996,None,3431.9783863999996,None,"[-0.203, -0.347]","[-0.2, 0.346]","[0.399, -0.003]","[0.066, -0.395]","[-0.377, 0.138]","[0.306, 0.255]","[0.304, -0.26]","[-0.378, -0.136]","[0.07, 0.393]",,18.128968159999204,7.779338659998757,27.595824759999232,"[0.030555555555555555, -0.22037037037037038, 0.1175925925925926]","[-0.3712962962962963, 0.2814814814814815, 0.42777777777777776]","[1, 1, 1]","[0, 0, 0]","[0, 0, 0]","[7.762682300000051, 18.11250360000031, 27.578754799999842]",0.01594255999862071,27.59468225999899,['A2'],['B1'],['C3'],['salmon'],['yellow'],['blue'],3461.3438865000003,None,3.0,2.3969537000002674,3461.3438865000003,None,3463.9606348,None,8.0,2.981228900000133,3469.0938497,None,4.0,2.1486141000004864,3466.8105818,None,10.0,2.265075899999829,<function functionImportanceA at 0x00000262240F68C8>,<function functionImportanceC at 0x00000262240F6D08>,<function functionImportanceB at 0x00000262240F61E0>,,,1.0,3.264493399999992,8.0,2.981228900000133,6.0,4.46456599999965,<function functiondiffA at 0x00000262240F6268>,<function functiondiffC at 0x00000262235CC840>,<function functiondiffB at 0x00000262240F6158>,,,,,3433.2809104000003,3474.5104724999997,None,3471.2605209999997,None,3476.7769904,None,15,001,2022_Jul_19_0903,2leo,2021.2.3,59.965411950381636,
3,33,Plan the items to decorate your Christmas tree,Stimuli/33A1.jpg,Stimuli/33A2.jpg,Stimuli/33A3.jpg,Stimuli/33B1.jpg,Stimuli/33B2.jpg,Stimuli/33B3.jpg,Stimuli/33C1.jpg,Stimuli/33C2.jpg,Stimuli/33C3.jpg,,,,,0,37,37,33,,,,,,,,3480.7604577999996,None,3481.7601357999997,None,3487.7599535000004,None,"[0.07, 0.393]","[0.304, -0.26]","[-0.378, -0.136]","[0.399, -0.003]","[-0.203, -0.347]","[-0.2, 0.346]","[0.306, 0.255]","[0.066, -0.395]","[-0.377, 0.138]",,21.696500879999803,35.17944908000027,12.430568679999851,"[0.04351851851851852, 0.11666666666666667, 0.3574074074074074]","[-0.3888888888888889, 0.34629629629629627, -0.02962962962962963]","[1, 1, 1]","[0, 0, 0]","[0, 0, 0]","[12.419713800000864, 21.68626949999998, 35.16892110000026]",0.009797579999940353,35.17867368000043,['A1'],['B1'],['C2'],['salmon'],['blue'],['yellow'],3525.1088131,None,2.0,1.5637508999998317,3525.1088131,None,3531.0921540000004,None,8.0,1.9651756000002933,3532.5420583,None,1.0,2.4985537000002296,3526.7585861000002,None,6.0,3.814351300000453,<function functionImportanceC at 0x00000262240F6AE8>,<function functionImportanceA at 0x0000026223BEC400>,<function functionImportanceB at 0x00000262240F6730>,,,6.0,7.464991600000758,6.0,1.9651756000002933,10.0,2.9146300000002157,<function functiondiffC at 0x00000262240F6E18>,<function functiondiffB at 0x00000262240F66A8>,<function functiondiffA at 0x00000262240F62F0>,,,,,3489.4689585,3535.0419476,None,3541.9083545,None,3538.8419461,None,15,001,2022_Jul_19_0903,2leo,2021.2.3,59.965411950381636,
3,13,Plan a romantic date this weekend,Stimuli/13A1.jpg,Stimuli/13A2.jpg,Stimuli/13A3.jpg,Stimuli/13B1.jpg,Stimuli/13B2.jpg,Stimuli/13B3.jpg,Stimuli/13C1.jpg,Stimuli/13C2.jpg,Stimuli/13C3.jpg,,,,,0,38,38,13,,,,,,,,3548.7597109000003,None,3549.7751985,None,3555.7747973,None,"[0.399, -0.003]","[-0.203, -0.347]","[-0.2, 0.346]","[0.306, 0.255]","[0.066, -0.395]","[-0.377, 0.138]","[0.07, 0.393]","[0.304, -0.26]","[-0.378, -0.136]",,15.183084759999474,30.015005459999884,32.748607159999665,"[-0.1685185185185185, 0.2833333333333333, -0.3490740740740741]","[-0.3055555555555556, 0.22314814814814815, -0.13148148148148148]","[1, 1, 1]","[0, 0, 0]","[0, 0, 0]","[15.173968199999763, 30.005669000000125, 32.738854000000174]",0.00861255999916466,32.747340359999725,['A2'],['B1'],['C3'],['blue'],['salmon'],['yellow'],3590.2236934,None,8.0,1.6804410000004282,3590.2236934,None,3591.9905277000003,None,2.0,3.547596500000509,3598.5914121,None,4.0,2.665126699999746,3595.5402848,None,9.0,2.9820021999994424,<function functionImportanceA at 0x0000026223BEC620>,<function functionImportanceC at 0x00000262248F7400>,<function functionImportanceB at 0x00000262248F7598>,,,6.0,3.230890100000579,2.0,3.547596500000509,0.0,5.981696099999681,<function functiondiffA at 0x00000262240F6D90>,<function functiondiffC at 0x00000262248F7950>,<function functiondiffB at 0x00000262240F6840>,,,,,3557.0000526999997,3604.4233466,None,3601.1899022000002,None,3607.0233462,None,15,001,2022_Jul_19_0903,2leo,2021.2.3,59.965411950381636,
3,14,Plan your own Pizza for dinner,Stimuli/14A1.jpg,Stimuli/14A2.jpg,Stimuli/14A3.jpg,Stimuli/14B1.jpg,Stimuli/14B2.jpg,Stimuli/14B3.jpg,Stimuli/14C1.jpg,Stimuli/14C2.jpg,Stimuli/14C3.jpg,,,,,0,39,39,14,,,,,,,,3612.5092859,None,3613.522829,None,3619.5230267,None,"[0.066, -0.395]","[-0.377, 0.138]","[0.306, 0.255]","[-0.203, -0.347]","[-0.2, 0.346]","[0.399, -0.003]","[0.304, -0.26]","[-0.378, -0.136]","[0.07, 0.393]",,9.41473107999991,17.131577379999726,3.7324504799998977,"[0.30185185185185187, -0.42777777777777776, 0.40555555555555556]","[-0.2037037037037037, 0.1175925925925926, -0.013888888888888888]","[1, 1, 1]","[0, 0, 0]","[0, 0, 0]","[3.7150136000000202, 9.397706300000209, 17.11421110000083]",0.01651107999987289,17.130489279999892,['A2'],['B3'],['C1'],['blue'],['salmon'],['yellow'],3638.3055351999997,None,9.0,2.6634861000002275,3638.3055351999997,None,3641.0390070999997,None,6.0,3.880818399999953,3649.7219598999995,None,8.0,7.065202799999497,3644.9221906999996,None,4.0,4.715157699999509,<function functionImportanceA at 0x00000262248F7E18>,<function functionImportanceC at 0x00000262248F7D08>,<function functionImportanceB at 0x00000262248F7158>,,,4.0,2.5146021999998993,-0.0,3.880818399999953,6.0,3.1310488999997688,<function functiondiffB at 0x00000262248F76A8>,<function functiondiffA at 0x00000262248F7B70>,<function functiondiffC at 0x00000262248F7378>,,,,,3620.7051722,3662.4049056999997,None,3659.8718641,None,3656.7386278,None,15,001,2022_Jul_19_0903,2leo,2021.2.3,59.965411950381636,
3,24,Plan your Monday morning on a workday ,Stimuli/24A1.jpg,Stimuli/24A2.jpg,Stimuli/24A3.jpg,Stimuli/24B1.jpg,Stimuli/24B2.jpg,Stimuli/24B3.jpg,Stimuli/24C1.jpg,Stimuli/24C2.jpg,Stimuli/24C3.jpg,,,,,0,40,40,24,,,,,,,,3666.1722375000004,None,3667.1716413,None,3673.1714985000003,None,"[-0.2, 0.346]","[-0.203, -0.347]","[0.399, -0.003]","[-0.378, -0.136]","[0.304, -0.26]","[0.07, 0.393]","[-0.377, 0.138]","[0.066, -0.395]","[0.306, 0.255]",,14.2752996600002,39.75773745999959,26.508631259999675,"[-0.14444444444444443, -0.31296296296296294, 0.3638888888888889]","[-0.3148148148148148, 0.06388888888888888, -0.21296296296296297]","[1, 1, 1]","[0, 0, 0]","[0, 0, 0]","[14.26160130000062, 26.49448889999985, 39.74380199999996]",0.013181059999624267,39.75687866000044,['A2'],['B2'],['C1'],['salmon'],['yellow'],['blue'],3714.5367125999996,None,5.0,3.0470696000002135,3714.5367125999996,None,3733.7197217,None,7.0,4.381878500000312,3729.0531655,None,1.0,4.6651253,3717.6535104,None,8.0,11.380861600000571,<function functionImportanceC at 0x00000262248F7048>,<function functionImportanceB at 0x00000262248F71E0>,<function functionImportanceA at 0x00000262248F7268>,,,3.0,3.3647571999999855,1.0,4.381878500000312,9.0,3.4479535000000396,<function functiondiffB at 0x00000262248F7EA0>,<function functiondiffA at 0x00000262248F7510>,<function functiondiffC at 0x00000262248F7BF8>,,,,,3674.3071557999997,3744.9527194999996,None,3741.5694666000004,None,3738.102794,None,15,001,2022_Jul_19_0903,2leo,2021.2.3,59.965411950381636,
3,23,Plan a city trip,Stimuli/23A1.jpg,Stimuli/23A2.jpg,Stimuli/23A3.jpg,Stimuli/23B1.jpg,Stimuli/23B2.jpg,Stimuli/23B3.jpg,Stimuli/23C1.jpg,Stimuli/23C2.jpg,Stimuli/23C3.jpg,,,,,0,41,41,23,,,,,,,,3747.2703567000003,None,3748.2694126,None,3754.2691692000003,None,"[-0.377, 0.138]","[0.066, -0.395]","[0.306, 0.255]","[-0.378, -0.136]","[0.304, -0.26]","[0.07, 0.393]","[-0.2, 0.346]","[-0.203, -0.347]","[0.399, -0.003]",,9.21488294000028,18.881237340000553,24.5813654399999,"[0.05648148148148148, -0.3888888888888889, -0.18888888888888888]","[-0.3435185185185185, -0.13148148148148148, 0.3148148148148148]","[1, 1, 1]","[0, 0, 0]","[0, 0, 0]","[9.20618529999956, 18.872379000000365, 24.572221700000227]",0.008181440000043949,24.580387340000016,['A2'],['B1'],['C1'],['yellow'],['salmon'],['blue'],3780.5016147,None,9.0,3.347279100000378,3780.5016147,None,3789.8181504,None,2.0,2.5820041000006313,3783.9184114000004,None,10.0,3.6810262999997576,3787.6516473999995,None,3.0,2.198909900000217,<function functionImportanceB at 0x00000262240F6F28>,<function functionImportanceC at 0x00000262248F72F0>,<function functionImportanceA at 0x00000262240F6B70>,,,7.0,5.0980452000003424,1.0,2.5820041000006313,2.0,3.8308761000007507,<function functiondiffB at 0x00000262248F7AE8>,<function functiondiffC at 0x00000262248F7F28>,<function functiondiffA at 0x00000262248F7C80>,,,,,3755.4437208000004,3796.2514133,None,3798.3678462000003,None,3792.4014783,None,15,001,2022_Jul_19_0903,2leo,2021.2.3,59.965411950381636,
3,18,Plan your Saturday night ,Stimuli/18A1.jpg,Stimuli/18A2.jpg,Stimuli/18A3.jpg,Stimuli/18B1.jpg,Stimuli/18B2.jpg,Stimuli/18B3.jpg,Stimuli/18C1.jpg,Stimuli/18C2.jpg,Stimuli/18C3.jpg,,,,,0,42,42,18,,,,,,,,3802.9856581,None,3804.000987,None,3810.0008763,None,"[-0.203, -0.347]","[0.399, -0.003]","[-0.2, 0.346]","[0.066, -0.395]","[0.306, 0.255]","[-0.377, 0.138]","[0.304, -0.26]","[0.07, 0.393]","[-0.378, -0.136]",,14.777957819999756,9.715009720000126,24.228144419999808,"[-0.38333333333333336, 0.4583333333333333, 0.053703703703703705]","[0.1638888888888889, 0.021296296296296296, 0.37777777777777777]","[1, 1, 1]","[0, 0, 0]","[0, 0, 0]","[9.705774999999448, 14.771094400000038, 24.22080939999978]",0.006322019999970507,24.226950620000025,['A2'],['B3'],['C2'],['yellow'],['salmon'],['blue'],3835.8332681999996,None,8.0,3.013602600000013,3835.8332681999996,None,3838.9166945,None,8.0,5.764547699999639,3844.6665239999998,None,9.0,1.598743900000045,3846.3165672,None,0.0,8.998304400000052,<function functionImportanceA at 0x00000262248F7488>,<function functionImportanceB at 0x00000262240F6BF8>,<function functionImportanceC at 0x0000026224E69840>,,,1.0,4.097582400000647,4.0,5.764547699999639,7.0,2.713914300000397,<function functiondiffA at 0x00000262240F6400>,<function functiondiffC at 0x00000262248F70D0>,<function functiondiffB at 0x00000262248F7620>,,,,,3811.1294577000003,3859.4163790999996,None,3855.2830163000003,None,3882.9989423,None,15,001,2022_Jul_19_0903,2leo,2021.2.3,59.965411950381636,
3,16,Plan a delicious cake for the birthday of a friend,Stimuli/16A1.jpg,Stimuli/16A2.jpg,Stimuli/16A3.jpg,Stimuli/16B1.jpg,Stimuli/16B2.jpg,Stimuli/16B3.jpg,Stimuli/16C1.jpg,Stimuli/16C2.jpg,Stimuli/16C3.jpg,,,,,0,43,43,16,,,,,,,,3885.2335827,None,3886.2485756,None,3892.2487311,None,"[0.304, -0.26]","[-0.378, -0.136]","[0.07, 0.393]","[0.066, -0.395]","[-0.377, 0.138]","[0.306, 0.255]","[-0.203, -0.347]","[-0.2, 0.346]","[0.399, -0.003]",,42.422345319999295,3.023804219998965,16.040187619999415,"[0.04351851851851852, -0.14444444444444443, -0.3388888888888889]","[-0.36574074074074076, 0.3111111111111111, -0.08611111111111111]","[1, 1, 1]","[0, 0, 0]","[0, 0, 0]","[3.0092813999999635, 16.025377699999808, 42.40806169999996]",0.013754019999396405,42.42170991999956,['A2'],['B1'],['C2'],['yellow'],['salmon'],['blue'],3936.5970957000004,None,8.0,2.7472866000007343,3936.5970957000004,None,3939.4139662000002,None,3.0,6.84742820000065,3949.1635247,None,9.0,1.7153567999994266,3946.347233,None,2.0,2.648818000000574,<function functionImportanceA at 0x00000262248F7D90>,<function functionImportanceC at 0x0000026224E69AE8>,<function functionImportanceB at 0x0000026224E691E0>,,,3.0,5.447795400000359,7.0,6.84742820000065,2.0,2.364412899999479,<function functiondiffC at 0x0000026224E69C80>,<function functiondiffB at 0x00000262248F77B8>,<function functiondiffA at 0x00000262240F6EA0>,,,,,3893.7202666,3950.6637060999997,None,3957.1301209999997,None,3954.780244,None,15,001,2022_Jul_19_0903,2leo,2021.2.3,59.965411950381636,
3,30,Plan your sport work out for tomorrow,Stimuli/30A1.jpg,Stimuli/30A2.jpg,Stimuli/30A3.jpg,Stimuli/30B1.jpg,Stimuli/30B2.jpg,Stimuli/30B3.jpg,Stimuli/30C1.jpg,Stimuli/30C2.jpg,Stimuli/30C3.jpg,,,,,0,44,44,30,,,,,,,,3962.0982314,None,3963.113202,None,3969.1131026,None,"[0.304, -0.26]","[0.07, 0.393]","[-0.378, -0.136]","[0.066, -0.395]","[0.306, 0.255]","[-0.377, 0.138]","[-0.203, -0.347]","[0.399, -0.003]","[-0.2, 0.346]",,20.706600280000202,2.8242832800006,7.140903380000054,"[0.04814814814814815, 0.35648148148148145, 0.2916666666666667]","[-0.3287037037037037, -0.016666666666666666, -0.2740740740740741]","[1, 1, 1]","[0, 0, 0]","[0, 0, 0]","[2.8192276999998285, 7.135512500000004, 20.701804099999208]",0.004371180000816821,20.706107480000355,['A1'],['B1'],['C2'],['blue'],['yellow'],['salmon'],3991.4957180999995,None,9.0,2.9634831000003032,3991.4957180999995,None,3997.4289273,None,9.0,3.2652250000001004,4000.7648727,None,6.0,3.6315849000002345,3994.5291018000003,None,3.0,2.8809338999999454,<function functionImportanceC at 0x0000026224E69598>,<function functionImportanceA at 0x0000026224E69A60>,<function functionImportanceB at 0x0000026224E697B8>,,,7.0,9.580935200000567,7.0,3.2652250000001004,0.0,2.6145808999999645,<function functiondiffC at 0x0000026224E69E18>,<function functiondiffB at 0x0000026224E69EA0>,<function functiondiffA at 0x0000026224E69D08>,,,,,3970.3088261999997,4004.328857,None,4013.5283630999998,None,4010.9120042,None,15,001,2022_Jul_19_0903,2leo,2021.2.3,59.965411950381636,
