Condition,N_Scenario,written_scenario,ImageA1,ImageA2,ImageA3,ImageB1,ImageB2,ImageB3,ImageC1,ImageC2,ImageC3,trials_2.thisRepN,trials_2.thisTrialN,trials_2.thisN,trials_2.thisIndex,trial.thisRepN,trial.thisTrialN,trial.thisN,trial.thisIndex,button_2.started,button_2.stopped,button_2.numClicks,button_2.timesOn,button_2.timesOff,text.started,text.stopped,fixationcross1_started,fixationcross1_stopped,Scenario_started,Scenario_stopped,fixationcross2_started,fixationcross2_stopped,A1pos,A2pos,A3pos,B1pos,B2pos,B3pos,C1pos,C2pos,C3pos,﻿Imagesdecision_started,decisiontimeA,decisiontimeB,decisiontimeC,mouse_x,mouse_y,mouse_leftButton,mouse_midButton,mouse_rightButton,mouse_time,mouse_started,mouse_stopped,clicked_optionA,clicked_optionB,clicked_optionC,colour_category_A,colour_category_B,colour_category_C,question_confidence_started,question_confidence_stopped,slider_confidence_response,slider_confidence_rt,slider_confidence_started,slider_confidence_stopped,question_valueC_started,question_valueC_stopped,slider_valueC_response,slider_valueC_rt,question_valueB_started,question_valueB_stopped,slider_valueB_response,slider_valueB_rt,question_valueA_started,question_valueA_stopped,slider_valueA_response,slider_valueA_rt,Importance_First,Importance_Second,Importance_Third,question_diff_started,question_diff_stopped,slider_diffC_response,slider_diffC_rt,slider_diffA_response,slider_diffA_rt,slider_diffB_response,slider_diffB_rt,diff_First,diff_Second,diff_Third,button_3_started,button_3_stopped,text_2_started,text_2_stopped,Imagesdecision_started,question_diffA_started,question_diffA_stopped,question_diffB_started,question_diffB_stopped,question_diffC_started,question_diffC_stopped,participant,session,date,expName,psychopyVersion,frameRate,
3,2,Plan a party to celebrate your birthday,Stimuli/2A1t.jpg,Stimuli/2A2t.jpg,Stimuli/2A3t.jpg,Stimuli/2B1t.jpg,Stimuli/2B2t.jpg,Stimuli/2B3t.jpg,Stimuli/2C1t.jpg,Stimuli/2C2t.jpg,Stimuli/2C3t.jpg,0,0,0,0,,,,,19.8739712999959,None,1,[2.757244599997648],[2.7572481999959564],19.8739712999959,None,80.85649089999788,None,81.86465940000198,None,87.86443529999815,None,"[0.306, 0.255]","[0.066, -0.395]","[-0.377, 0.138]","[0.399, -0.003]","[-0.203, -0.347]","[-0.2, 0.346]","[0.07, 0.393]","[0.304, -0.26]","[-0.378, -0.136]",91.87403519999498,2.0858045999048045,3.969269299901498,3.0366288999066455,"[-0.33055555555555555, -0.3416666666666667, -0.2111111111111111]","[0.0824074074074074, -0.11481481481481481, -0.32592592592592595]","[1, 1, 1]","[0, 0, 0]","[0, 0, 0]","[2.073812299997371, 3.0241554000022006, 3.9570326000030036]",0.011381099902791902,4.985180599906016,['A3'],['B2'],['C3'],['yellow'],['blue'],['salmon'],97.31393409999873,None,8.0,5.313843199997791,97.31393409999873,None,102.71976590000122,None,9.0,9.781281900002796,114.03047330000118,None,7.0,8.547818499995628,122.34661469999992,None,8.0,4.381590100005269,<function functionImportanceCt at 0x00000202E5EEFD08>,<function functionImportanceBt at 0x00000202E5EEFA60>,<function functionImportanceAt at 0x00000202E5EEFEA0>,150.97939580000093,None,9.0,14.53051730000152,5.0,4.381590100005269,5.0,7.098021999998309,<function functiondiffCt at 0x00000202E5EB0268>,<function functiondiffAt at 0x00000202E5EB0BF8>,<function functiondiffBt at 0x00000202E5EB09D8>,,,,,,,,,,,,22,001,2022_Jul_19_1809,2leo,2021.2.3,60.019578387945074,
3,3,Plan one week of vacation,Stimuli/3A1t.jpg,Stimuli/3A2t.jpg,Stimuli/3A3t.jpg,Stimuli/3B1t.jpg,Stimuli/3B2t.jpg,Stimuli/3B3t.jpg,Stimuli/3C1t.jpg,Stimuli/3C2t.jpg,Stimuli/3C3t.jpg,0,1,1,1,,,,,,,,,,,,157.16266090000136,None,158.1625178999966,None,164.16252659999736,None,"[0.304, -0.26]","[-0.378, -0.136]","[0.07, 0.393]","[-0.203, -0.347]","[-0.2, 0.346]","[0.399, -0.003]","[0.066, -0.395]","[-0.377, 0.138]","[0.306, 0.255]",170.27917499999603,4.662898799848335,65.51130829984322,1.7500979998440016,"[-0.34444444444444444, -0.3574074074074074, 0.1111111111111111, 0.27314814814814814, 0.08796296296296297, 0.08333333333333333, -0.3148148148148148, 0.04351851851851852, 0.04351851851851852, 0.14351851851851852, 0.26944444444444443, 0.2777777777777778, 0.34074074074074073, 0.34074074074074073, -0.44537037037037036, -0.2712962962962963]","[0.09907407407407408, -0.1935185185185185, -0.3675925925925926, 0.18796296296296297, -0.43333333333333335, -0.40185185185185185, -0.13148148148148148, -0.33240740740740743, -0.33240740740740743, 0.31296296296296294, 0.3, 0.23148148148148148, 0.23333333333333334, 0.23333333333333334, 0.15925925925925927, -0.2861111111111111]","[1, 1, 1, 1, 1, 1, 1, 1, 1, 1, 1, 1, 1, 1, 1, 1]","[0, 0, 0, 0, 0, 0, 0, 0, 0, 0, 0, 0, 0, 0, 0, 0]","[0, 0, 0, 0, 0, 0, 0, 0, 0, 0, 0, 0, 0, 0, 0, 0]","[1.7336223000020254, 4.649075799999991, 10.048950299998978, 11.598472099998617, 13.917159299999184, 14.382518400001572, 17.915500700000848, 24.448571100001573, 24.715012799999386, 26.765094000002136, 27.21528560000297, 59.03075540000282, 59.86425489999965, 60.064068500003486, 61.41428140000062, 65.49735520000104]",0.013270299845316913,65.51034719984455,['A2'],['B1'],['C2'],['salmon'],['blue'],['yellow'],236.24362100000144,None,6.0,15.413881700005732,236.24362100000144,None,271.1592803999956,None,8.0,6.598027300002286,264.35937009999907,None,9.0,7.031678600003943,253.62668829999893,None,7.0,10.91453249999904,<function functionImportanceAt at 0x00000202D37931E0>,<function functionImportanceBt at 0x00000202DB526E18>,<function functionImportanceCt at 0x00000202E3C0F9D8>,287.92555379999976,None,6.0,3.7477972000051523,4.0,10.91453249999904,2.0,4.881054199999198,<function functiondiffAt at 0x00000202E5EB0C80>,<function functiondiffCt at 0x00000202E5EB06A8>,<function functiondiffBt at 0x00000202E5EB0510>,,,,,,,,,,,,22,001,2022_Jul_19_1809,2leo,2021.2.3,60.019578387945074,
3,31,Plan your order at a restaurant    ,Stimuli/31A1.jpg,Stimuli/31A2.jpg,Stimuli/31A3.jpg,Stimuli/31B1.jpg,Stimuli/31B2.jpg,Stimuli/31B3.jpg,Stimuli/31C1.jpg,Stimuli/31C2.jpg,Stimuli/31C3.jpg,,,,,0,0,0,31,,,,,,,,360.801572999997,None,361.79022569999506,None,367.78999589999876,None,"[0.399, -0.003]","[-0.203, -0.347]","[-0.2, 0.346]","[0.306, 0.255]","[0.066, -0.395]","[-0.377, 0.138]","[0.07, 0.393]","[0.304, -0.26]","[-0.378, -0.136]",,5.465794299947447,10.53131949994713,8.299353999944287,"[0.41944444444444445, 0.11481481481481481, -0.362962962962963]","[-0.01574074074074074, 0.4111111111111111, 0.14537037037037037]","[1, 1, 1]","[0, 0, 0]","[0, 0, 0]","[5.458401800002321, 8.291437600004429, 10.523496100002376]",0.006981399950745981,10.530209399948944,['A1'],['B3'],['C1'],['salmon'],['yellow'],['blue'],381.4561523000011,None,9.0,3.7124966999981552,381.4561523000011,None,392.57262539999647,None,10.0,3.0647690999976476,395.63919789999636,None,9.0,6.182601799999247,386.70590110000194,None,9.0,7.2642481999937445,<function functionImportanceA at 0x00000202E5EEFF28>,<function functionImportanceC at 0x0000020281835730>,<function functionImportanceB at 0x00000202E5EB0F28>,,,6.0,7.2642481999937445,9.0,6.698181800005841,8.0,4.8643969999975525,<function functiondiffA at 0x00000202E5EB0598>,<function functiondiffB at 0x00000202E5EB0488>,<function functiondiffC at 0x00000202E5EB0A60>,291.9254957000012,None,291.9254957000012,None,370.45030289999704,402.10583719999704,None,408.4721553999989,None,413.3553408000007,None,22,001,2022_Jul_19_1809,2leo,2021.2.3,60.019578387945074,
3,25,Plan how you want to read a book in your free time ,Stimuli/25A1.jpg,Stimuli/25A2.jpg,Stimuli/25A3.jpg,Stimuli/25B1.jpg,Stimuli/25B2.jpg,Stimuli/25B3.jpg,Stimuli/25C1.jpg,Stimuli/25C2.jpg,Stimuli/25C3.jpg,,,,,0,1,1,25,,,,,,,,416.7385385999951,None,417.7388262999957,None,423.73857449999923,None,"[0.304, -0.26]","[0.07, 0.393]","[-0.378, -0.136]","[-0.203, -0.347]","[0.399, -0.003]","[-0.2, 0.346]","[0.066, -0.395]","[0.306, 0.255]","[-0.377, 0.138]",,11.221335499991255,19.45469759999105,18.571874899993418,"[-0.3194444444444444, 0.2490740740740741, 0.3296296296296296]","[-0.14629629629629629, 0.21851851851851853, 0.05185185185185185]","[1, 1, 1]","[0, 0, 0]","[0, 0, 0]","[11.212547500006622, 18.562525800000003, 19.445761900002253]",0.008176199997251388,19.45353279999108,['A3'],['B2'],['C2'],['salmon'],['yellow'],['blue'],445.13791169999604,None,9.0,2.796981200001028,445.13791169999604,None,459.3041895999995,None,8.0,6.931658600005903,455.404266599995,None,10.0,3.5981468000027235,448.0209911999991,None,8.0,7.348058600000513,<function functionImportanceA at 0x00000202E5EB0EA0>,<function functionImportanceB at 0x0000020281835488>,<function functionImportanceC at 0x00000202818356A8>,,,10.0,7.348058600000513,8.0,3.614483299999847,1.0,4.430906199995661,<function functiondiffC at 0x00000202E5EEF9D8>,<function functiondiffA at 0x00000202E5EB0158>,<function functiondiffB at 0x00000202E5EEFE18>,,,,,425.2197575999962,470.30376070000057,None,473.95378789999813,None,465.9873490999962,None,22,001,2022_Jul_19_1809,2leo,2021.2.3,60.019578387945074,
3,16,Plan a delicious cake for the birthday of a friend,Stimuli/16A1.jpg,Stimuli/16A2.jpg,Stimuli/16A3.jpg,Stimuli/16B1.jpg,Stimuli/16B2.jpg,Stimuli/16B3.jpg,Stimuli/16C1.jpg,Stimuli/16C2.jpg,Stimuli/16C3.jpg,,,,,0,2,2,16,,,,,,,,477.88676549999946,None,478.88681219999853,None,484.8868899000008,None,"[-0.377, 0.138]","[0.306, 0.255]","[0.066, -0.395]","[-0.378, -0.136]","[0.07, 0.393]","[0.304, -0.26]","[-0.2, 0.346]","[0.399, -0.003]","[-0.203, -0.347]",,16.991020599991316,18.07550499998615,22.108740499985288,"[0.07592592592592592, -0.3101851851851852, -0.1638888888888889]","[-0.3990740740740741, -0.16296296296296298, -0.2935185185185185]","[1, 1, 1]","[0, 0, 0]","[0, 0, 0]","[16.988724800001364, 18.07306129999779, 22.105956300001708]",0.0016987999842967838,22.106802499991318,['A3'],['B1'],['C3'],['blue'],['salmon'],['yellow'],508.90263559999585,None,8.0,2.9293332000015653,508.90263559999585,None,518.0192050999976,None,7.0,5.0817343999951845,523.2356782999996,None,10.0,2.082182099999045,511.8860746999999,None,9.0,6.014649100005045,<function functionImportanceA at 0x0000020281835C80>,<function functionImportanceC at 0x0000020281835950>,<function functionImportanceB at 0x00000202818359D8>,,,2.0,6.014649100005045,10.0,2.5813157000011415,8.0,3.2978565000012168,<function functiondiffC at 0x00000202E5EB01E0>,<function functiondiffB at 0x00000202818357B8>,<function functiondiffA at 0x0000020281835598>,,,,,486.3118570000006,533.5354217999993,None,530.268899499999,None,525.1024265999949,None,22,001,2022_Jul_19_1809,2leo,2021.2.3,60.019578387945074,
3,5,Plan a birthday party for your younger self when you turn eight,Stimuli/5A1.jpg,Stimuli/5A2.jpg,Stimuli/5A3.jpg,Stimuli/5B1.jpg,Stimuli/5B2.jpg,Stimuli/5B3.jpg,Stimuli/5C1.jpg,Stimuli/5C2.jpg,Stimuli/5C3.jpg,,,,,0,3,3,5,,,,,,,,535.6351838999981,None,536.635186200001,None,542.6353558999981,None,"[0.306, 0.255]","[0.066, -0.395]","[-0.377, 0.138]","[0.07, 0.393]","[0.304, -0.26]","[-0.378, -0.136]","[0.399, -0.003]","[-0.203, -0.347]","[-0.2, 0.346]",,15.164919899856613,19.665250599857245,6.982398099855345,"[-0.1648148148148148, 0.06944444444444445, -0.3416666666666667]","[0.2851851851851852, -0.37407407407407406, -0.13240740740740742]","[1, 1, 1]","[0, 0, 0]","[0, 0, 0]","[6.965223500003049, 15.148373200005153, 19.648368800000753]",0.016007499856641516,19.664120899855334,['A2'],['B3'],['C3'],['blue'],['yellow'],['salmon'],568.567681200002,None,9.0,2.113826100001461,568.567681200002,None,584.6839831999969,None,10.0,3.614774000001489,579.9508232000007,None,8.0,5.5651446000047144,573.3173836999995,None,9.0,7.664270100001886,<function functionImportanceA at 0x00000202818350D0>,<function functionImportanceB at 0x00000202818351E0>,<function functionImportanceC at 0x0000020281835158>,,,4.0,7.664270100001886,3.0,3.7143635999964317,9.0,3.880948099998932,<function functiondiffB at 0x0000020281835A60>,<function functiondiffC at 0x00000202E5EB0378>,<function functiondiffA at 0x0000020281835EA0>,,,,,548.4562982999996,595.5337253999969,None,588.0006323999987,None,591.6505898999967,None,22,001,2022_Jul_19_1809,2leo,2021.2.3,60.019578387945074,
3,14,Plan your own Pizza for dinner,Stimuli/14A1.jpg,Stimuli/14A2.jpg,Stimuli/14A3.jpg,Stimuli/14B1.jpg,Stimuli/14B2.jpg,Stimuli/14B3.jpg,Stimuli/14C1.jpg,Stimuli/14C2.jpg,Stimuli/14C3.jpg,,,,,0,4,4,14,,,,,,,,597.9834345999989,None,598.9836801999991,None,604.9834066999974,None,"[-0.378, -0.136]","[0.304, -0.26]","[0.07, 0.393]","[-0.377, 0.138]","[0.066, -0.395]","[0.306, 0.255]","[-0.2, 0.346]","[-0.203, -0.347]","[0.399, -0.003]",,11.444064299990714,12.377964199993585,4.928569799994875,"[0.34444444444444444, 0.3138888888888889, -0.42407407407407405]","[-0.05185185185185185, -0.23981481481481481, 0.12962962962962962]","[1, 1, 1]","[0, 0, 0]","[0, 0, 0]","[4.923077200000989, 11.439174500002991, 12.372870899998816]",0.004371299990452826,12.377091499991366,['A2'],['B1'],['C3'],['salmon'],['yellow'],['blue'],619.0494619999954,None,10.0,2.230416200000036,619.0494619999954,None,628.8827894999995,None,10.0,2.0483898000020417,626.1162127999996,None,10.0,2.831784499998321,621.4329995000007,None,8.0,4.664555199997267,<function functionImportanceA at 0x0000020281835268>,<function functionImportanceB at 0x00000202E5EB00D0>,<function functionImportanceC at 0x000002028052F510>,,,0.0,4.664555199997267,2.0,3.1138404000012088,1.0,4.2141369999953895,<function functiondiffC at 0x00000202E5EB0840>,<function functiondiffA at 0x00000202E5DB0EA0>,<function functiondiffB at 0x0000020281835D90>,,,,,606.1906006999998,634.7659660999998,None,637.9159142999997,None,630.916068999999,None,22,001,2022_Jul_19_1809,2leo,2021.2.3,60.019578387945074,
3,3,Plan a movie night with a friend,Stimuli/3A1.jpg,Stimuli/3A2.jpg,Stimuli/3A3.jpg,Stimuli/3B1.jpg,Stimuli/3B2.jpg,Stimuli/3B3.jpg,Stimuli/3C1.jpg,Stimuli/3C2.jpg,Stimuli/3C3.jpg,,,,,0,5,5,3,,,,,,,,641.6323737999992,None,642.6322960999969,None,648.6322073999982,None,"[-0.377, 0.138]","[0.066, -0.395]","[0.306, 0.255]","[-0.378, -0.136]","[0.304, -0.26]","[0.07, 0.393]","[-0.2, 0.346]","[-0.203, -0.347]","[0.399, -0.003]",,19.2965329999206,14.696859299918287,6.947348599918769,"[-0.21203703703703702, 0.09074074074074075, 0.06388888888888888]","[0.3314814814814815, 0.325, -0.3509259259259259]","[1, 1, 1]","[0, 0, 0]","[0, 0, 0]","[6.9445152999978745, 14.694173600000795, 19.2941662000012]",0.0018307999198441394,19.295770799923048,['A2'],['B3'],['C1'],['salmon'],['yellow'],['blue'],671.9315251000007,None,9.0,1.6144911000010325,671.9315251000007,None,680.4477320000005,None,10.0,6.26492750000034,674.3482690000019,None,9.0,5.081357000002754,684.997988199997,None,9.0,2.8319652999998652,<function functionImportanceB at 0x000002028052FC80>,<function functionImportanceC at 0x000002028052F268>,<function functionImportanceA at 0x000002028052FD08>,,,4.0,2.8319652999998652,6.0,3.0312678000045707,4.0,4.280788700001722,<function functiondiffB at 0x000002028052F400>,<function functiondiffA at 0x000002028052FF28>,<function functiondiffC at 0x000002028052FA60>,,,,,652.1701797999995,692.1144205000019,None,688.197886199996,None,695.5310016000003,None,22,001,2022_Jul_19_1809,2leo,2021.2.3,60.019578387945074,
3,30,Plan your sport work out for tomorrow,Stimuli/30A1.jpg,Stimuli/30A2.jpg,Stimuli/30A3.jpg,Stimuli/30B1.jpg,Stimuli/30B2.jpg,Stimuli/30B3.jpg,Stimuli/30C1.jpg,Stimuli/30C2.jpg,Stimuli/30C3.jpg,,,,,0,6,6,30,,,,,,,,698.8804124999951,None,699.8807860000015,None,705.880814199998,None,"[-0.377, 0.138]","[0.306, 0.255]","[0.066, -0.395]","[-0.378, -0.136]","[0.07, 0.393]","[0.304, -0.26]","[-0.2, 0.346]","[0.399, -0.003]","[-0.203, -0.347]",,12.47529699998995,6.758969299989985,4.60974009999336,"[0.41944444444444445, -0.3861111111111111, 0.26666666666666666]","[-0.04814814814814815, -0.09259259259259259, 0.20277777777777778]","[1, 1, 1]","[0, 0, 0]","[0, 0, 0]","[4.596988400000555, 6.746686899998167, 12.4631281999973]",0.011564299995370675,12.474542799995106,['A2'],['B1'],['C2'],['blue'],['salmon'],['yellow'],720.0134064999947,None,7.0,2.2297349000000395,720.0134064999947,None,722.3631993000017,None,8.0,2.881190100000822,725.2966220000017,None,7.0,3.0985041999956593,728.3300464999993,None,9.0,1.9646769999962999,<function functionImportanceC at 0x000002028052F7B8>,<function functionImportanceB at 0x000002028052FBF8>,<function functionImportanceA at 0x000002028052F1E0>,,,3.0,1.9646769999962999,5.0,4.864074800003436,3.0,3.598075500005507,<function functiondiffA at 0x00000202E5EB0730>,<function functiondiffC at 0x0000020281835840>,<function functiondiffB at 0x0000020281835D08>,,,,,707.0659780999995,730.2800109999953,None,738.1298032999985,None,735.1630282999977,None,22,001,2022_Jul_19_1809,2leo,2021.2.3,60.019578387945074,
3,1,Plan how to study for an exam,Stimuli/1A1.jpg,Stimuli/1A2.jpg,Stimuli/1A3.jpg,Stimuli/1B1.jpg,Stimuli/1B2.jpg,Stimuli/1B3.jpg,Stimuli/1C1.jpg,Stimuli/1C2.jpg,Stimuli/1C3.jpg,,,,,0,7,7,1,,,,,,,,741.229508999997,None,742.2295389999999,None,748.2294461999991,None,"[-0.2, 0.346]","[-0.203, -0.347]","[0.399, -0.003]","[-0.377, 0.138]","[0.066, -0.395]","[0.306, 0.255]","[-0.378, -0.136]","[0.304, -0.26]","[0.07, 0.393]",,5.647145199996885,14.680186299992783,13.530852899995807,"[-0.22314814814814815, 0.3416666666666667, -0.45740740740740743]","[0.34814814814814815, -0.22962962962962963, 0.1537037037037037]","[1, 1, 1]","[0, 0, 0]","[0, 0, 0]","[5.640375299997686, 13.523462499993911, 14.673155899996345]",0.006364999993820675,14.679407999996329,['A1'],['B1'],['C2'],['yellow'],['blue'],['salmon'],764.4621960000004,None,9.0,2.0136220999993384,764.4621960000004,None,772.9120573999971,None,8.0,2.065018900000723,766.5288618999984,None,9.0,3.114208900005906,769.645515199998,None,8.0,3.2484582000033697,<function functionImportanceB at 0x000002028052FAE8>,<function functionImportanceA at 0x000002028052F730>,<function functionImportanceC at 0x000002028052F378>,,,7.0,3.2484582000033697,4.0,2.2479791000005207,4.0,2.9477167000004556,<function functiondiffC at 0x0000020281835BF8>,<function functiondiffB at 0x000002028052F9D8>,<function functiondiffA at 0x000002028052F620>,,,,,749.3048834000001,781.6784050999995,None,778.7120129999967,None,774.9952571999966,None,22,001,2022_Jul_19_1809,2leo,2021.2.3,60.019578387945074,
3,24,Plan your Monday morning on a workday ,Stimuli/24A1.jpg,Stimuli/24A2.jpg,Stimuli/24A3.jpg,Stimuli/24B1.jpg,Stimuli/24B2.jpg,Stimuli/24B3.jpg,Stimuli/24C1.jpg,Stimuli/24C2.jpg,Stimuli/24C3.jpg,,,,,0,8,8,24,,,,,,,,783.4449956999961,None,784.4449868000011,None,790.4449951999995,None,"[-0.203, -0.347]","[0.399, -0.003]","[-0.2, 0.346]","[0.066, -0.395]","[0.306, 0.255]","[-0.377, 0.138]","[0.304, -0.26]","[0.07, 0.393]","[-0.378, -0.136]",,19.39210070000263,13.192535200003476,18.226046000003407,"[0.2722222222222222, 0.2675925925925926, -0.13703703703703704]","[0.22870370370370371, -0.21388888888888888, -0.29259259259259257]","[1, 1, 1]","[0, 0, 0]","[0, 0, 0]","[13.187749299999268, 18.221138699998846, 19.38774209999974]",0.0039520999998785555,19.391383200003474,['A1'],['B2'],['C1'],['salmon'],['yellow'],['blue'],811.4275538000002,None,8.0,2.84676269999909,811.4275538000002,None,821.2940585999968,None,10.0,2.0463109999982407,817.7108154000016,None,10.0,3.5483795999971335,814.3276786999995,None,10.0,3.364624299996649,<function functionImportanceA at 0x000002028052F2F0>,<function functionImportanceB at 0x000002028052F950>,<function functionImportanceC at 0x000002028052F598>,,,7.0,3.364624299996649,2.0,3.2812286999978824,6.0,2.914812900002289,<function functiondiffC at 0x0000020281835AE8>,<function functiondiffA at 0x000002028052FE18>,<function functiondiffB at 0x000002028052F8C8>,,,,,791.5545093999972,828.4439442000003,None,831.7437651,None,823.3273966999986,None,22,001,2022_Jul_19_1809,2leo,2021.2.3,60.019578387945074,
3,42,Plan how to draw a painting ,Stimuli/42A1.jpg,Stimuli/42A2.jpg,Stimuli/42A3.jpg,Stimuli/42B1.jpg,Stimuli/42B2.jpg,Stimuli/42B3.jpg,Stimuli/42C1.jpg,Stimuli/42C2.jpg,Stimuli/42C3.jpg,,,,,0,9,9,42,,,,,,,,834.1768512999988,None,835.1768465999994,None,841.176905100001,None,"[-0.377, 0.138]","[0.306, 0.255]","[0.066, -0.395]","[-0.2, 0.346]","[0.399, -0.003]","[-0.203, -0.347]","[-0.378, -0.136]","[0.07, 0.393]","[0.304, -0.26]",,12.660490099988237,9.061238999987836,5.4110765999867,"[-0.35833333333333334, -0.2361111111111111, 0.3574074074074074]","[-0.08333333333333333, -0.32685185185185184, 0.24351851851851852]","[1, 1, 1]","[0, 0, 0]","[0, 0, 0]","[5.397781699997722, 9.047934100002749, 12.647626799996942]",0.01215389998833416,12.659880899991549,['A2'],['B3'],['C1'],['blue'],['salmon'],['yellow'],855.5763775999949,None,8.0,2.2136401000025216,855.5763775999949,None,865.4760628000004,None,9.0,2.2651259999984177,861.8428803999996,None,8.0,3.6150930000003427,858.0262457999997,None,8.0,3.964312300005986,<function functionImportanceA at 0x000002028052F840>,<function functionImportanceB at 0x00000202808BD730>,<function functionImportanceC at 0x00000202808BD840>,,,3.0,3.964312300005986,4.0,3.414487800000643,9.0,5.114246400000411,<function functiondiffB at 0x000002028052FEA0>,<function functiondiffC at 0x0000020281835B70>,<function functiondiffA at 0x000002028052F6A8>,,,,,842.4441082999983,875.4927052999992,None,867.7095732999951,None,872.8593794999979,None,22,001,2022_Jul_19_1809,2leo,2021.2.3,60.019578387945074,
3,39,Plan what kind of watch you want to buy,Stimuli/39A1.jpg,Stimuli/39A2.jpg,Stimuli/39A3.jpg,Stimuli/39B1.jpg,Stimuli/39B2.jpg,Stimuli/39B3.jpg,Stimuli/39C1.jpg,Stimuli/39C2.jpg,Stimuli/39C3.jpg,,,,,0,10,10,39,,,,,,,,878.3922783000016,None,879.3923953999983,None,885.3923714999983,None,"[0.306, 0.255]","[0.066, -0.395]","[-0.377, 0.138]","[0.07, 0.393]","[0.304, -0.26]","[-0.378, -0.136]","[0.399, -0.003]","[-0.203, -0.347]","[-0.2, 0.346]",,6.263778199994704,12.880141399997228,19.597241799994663,"[-0.36018518518518516, 0.023148148148148147, 0.35555555555555557]","[0.09259259259259259, 0.3416666666666667, -0.049074074074074076]","[1, 1, 1]","[0, 0, 0]","[0, 0, 0]","[6.257241499995871, 12.873530299999402, 19.590417299994442]",0.005885599995963275,19.596011899993755,['A3'],['B1'],['C1'],['yellow'],['blue'],['salmon'],906.6081922000012,None,8.0,2.113625099998899,906.6081922000012,None,908.8414932999949,None,7.0,5.53212429999985,914.3245930999983,None,9.0,2.2139832000029855,916.5747804999992,None,7.0,2.948360900001717,<function functionImportanceC at 0x00000202808BD268>,<function functionImportanceB at 0x00000202808BD620>,<function functionImportanceA at 0x00000202808BD598>,,,5.0,2.948360900001717,0.0,4.08119180000358,0.0,4.447972699999809,<function functiondiffB at 0x000002028052F048>,<function functiondiffC at 0x00000202808BD2F0>,<function functiondiffA at 0x0000020281835F28>,,,,,886.5314455999978,926.7077761999972,None,919.5081032999951,None,923.9745844999998,None,22,001,2022_Jul_19_1809,2leo,2021.2.3,60.019578387945074,
3,17,Plan a day in Barcelona with a friend who is new to the city,Stimuli/17A1.jpg,Stimuli/17A2.jpg,Stimuli/17A3.jpg,Stimuli/17B1.jpg,Stimuli/17B2.jpg,Stimuli/17B3.jpg,Stimuli/17C1.jpg,Stimuli/17C2.jpg,Stimuli/17C3.jpg,,,,,0,11,11,17,,,,,,,,930.3073307000013,None,931.3075457999948,None,937.3074542999966,None,"[-0.2, 0.346]","[0.399, -0.003]","[-0.203, -0.347]","[-0.378, -0.136]","[0.07, 0.393]","[0.304, -0.26]","[-0.377, 0.138]","[0.306, 0.255]","[0.066, -0.395]",,10.436514699998952,13.103243800003838,4.3039185000016005,"[0.30185185185185187, -0.1685185185185185, 0.004629629629629629]","[0.21296296296296297, -0.3509259259259259, 0.3592592592592593]","[1, 1, 1]","[0, 0, 0]","[0, 0, 0]","[4.302071999998589, 10.435115300002508, 13.101686200003314]",0.000800499998149462,13.102286400004232,['A3'],['B2'],['C2'],['blue'],['salmon'],['yellow'],952.0401125999997,None,9.0,2.295679499999096,952.0401125999997,None,954.4069703999994,None,10.0,3.247886199998902,957.6734109999961,None,10.0,2.365059600000677,960.090277299998,None,9.0,2.5655189999961294,<function functionImportanceC at 0x00000202808BD048>,<function functionImportanceB at 0x00000202808BD6A8>,<function functionImportanceA at 0x00000202808BD8C8>,,,0.0,2.5655189999961294,8.0,5.081308400003763,-0.0,3.130726899995352,<function functiondiffC at 0x000002028052FB70>,<function functiondiffA at 0x000002028052F488>,<function functiondiffB at 0x000002028052F158>,,,,,938.453525799996,967.4733246999967,None,972.5733510999999,None,962.6067706999966,None,22,001,2022_Jul_19_1809,2leo,2021.2.3,60.019578387945074,
3,9,Plan a picnic with friends,Stimuli/9A1.jpg,Stimuli/9A2.jpg,Stimuli/9A3.jpg,Stimuli/9B1.jpg,Stimuli/9B2.jpg,Stimuli/9B3.jpg,Stimuli/9C1.jpg,Stimuli/9C2.jpg,Stimuli/9C3.jpg,,,,,0,12,12,9,,,,,,,,975.2226784999948,None,976.2231078999976,None,982.2233304999972,None,"[-0.203, -0.347]","[-0.2, 0.346]","[0.399, -0.003]","[0.066, -0.395]","[-0.377, 0.138]","[0.306, 0.255]","[0.304, -0.26]","[-0.378, -0.136]","[0.07, 0.393]",,11.282243199872028,14.565977099868178,7.282965599872114,"[-0.3472222222222222, -0.2638888888888889, -0.41759259259259257]","[-0.10648148148148148, -0.31203703703703706, 0.12685185185185185]","[1, 1, 1]","[0, 0, 0]","[0, 0, 0]","[7.279824899997038, 11.279808499995852, 14.56321719999687]",0.001981299872568343,14.564818199869478,['A1'],['B2'],['C2'],['salmon'],['blue'],['yellow'],1002.622318099995,None,9.0,3.113700699999754,1002.622318099995,None,1020.005261899998,None,8.0,6.915318200000911,1015.0887326000011,None,9.0,4.698369799996726,1007.2886435999972,None,7.0,7.99775260000024,<function functionImportanceA at 0x000002028052F0D0>,<function functionImportanceB at 0x00000202808BDD90>,<function functionImportanceC at 0x00000202808BDAE8>,,,1.0,7.99775260000024,3.0,2.7979974999980186,6.0,2.6478089000011096,<function functiondiffC at 0x00000202808BDEA0>,<function functiondiffA at 0x0000020281835E18>,<function functiondiffB at 0x000002028052FD90>,,,,,987.593527099998,1030.1548717999976,None,1032.8713745999994,None,1025.9218002999987,None,22,001,2022_Jul_19_1809,2leo,2021.2.3,60.019578387945074,
3,22,Plan a beach day with your friends,Stimuli/22A1.jpg,Stimuli/22A2.jpg,Stimuli/22A3.jpg,Stimuli/22B1.jpg,Stimuli/22B2.jpg,Stimuli/22B3.jpg,Stimuli/22C1.jpg,Stimuli/22C2.jpg,Stimuli/22C3.jpg,,,,,0,13,13,22,,,,,,,,1034.6713086999953,None,1035.6714326000001,None,1041.6715706999967,None,"[0.306, 0.255]","[0.066, -0.395]","[-0.377, 0.138]","[0.07, 0.393]","[0.304, -0.26]","[-0.378, -0.136]","[0.399, -0.003]","[-0.203, -0.347]","[-0.2, 0.346]",,9.914119599990954,15.81391439998697,11.751168199989479,"[-0.39444444444444443, -0.26296296296296295, 0.28888888888888886]","[0.07777777777777778, -0.3101851851851852, -0.27870370370370373]","[1, 1, 1]","[0, 0, 0]","[0, 0, 0]","[9.907531500000914, 11.741659999999683, 15.807160500000464]",0.005978599991067313,15.812872699985746,['A3'],['B2'],['C2'],['yellow'],['salmon'],['blue'],1059.1373498999965,None,7.0,2.730294099994353,1059.1373498999965,None,1065.8705432999996,None,10.0,2.879698999997345,1061.9705289999984,None,6.0,3.84776260000217,1068.7371716999987,None,8.0,3.18151460000081,<function functionImportanceB at 0x00000202808BD488>,<function functionImportanceC at 0x0000020281835378>,<function functionImportanceA at 0x00000202808BDD08>,,,2.0,3.18151460000081,8.0,2.3146653000003425,8.0,4.631184899997606,<function functiondiffB at 0x00000202808BDBF8>,<function functiondiffC at 0x0000020281835048>,<function functiondiffA at 0x00000202808BDB70>,,,,,1042.8467470999967,1078.5703079000014,None,1071.8704998999965,None,1076.5204012999966,None,22,001,2022_Jul_19_1809,2leo,2021.2.3,60.019578387945074,
3,40,Plan to see a sports event ,Stimuli/40A1.jpg,Stimuli/40A2.jpg,Stimuli/40A3.jpg,Stimuli/40B1.jpg,Stimuli/40B2.jpg,Stimuli/40B3.jpg,Stimuli/40C1.jpg,Stimuli/40C2.jpg,Stimuli/40C3.jpg,,,,,0,14,14,40,,,,,,,,1080.4033236999967,None,1081.403510899996,None,1087.4035126999952,None,"[0.066, -0.395]","[-0.377, 0.138]","[0.306, 0.255]","[0.304, -0.26]","[-0.378, -0.136]","[0.07, 0.393]","[-0.203, -0.347]","[-0.2, 0.346]","[0.399, -0.003]",,17.908343299997796,13.676123299999745,22.729359699995257,"[0.2851851851851852, 0.10555555555555556, -0.14166666666666666]","[-0.2740740740740741, -0.40185185185185185, 0.36203703703703705]","[1, 1, 1]","[0, 0, 0]","[0, 0, 0]","[13.67279669999698, 17.90530790000048, 22.723049699998228]",0.002625699999043718,22.724695599994448,['A1'],['B1'],['C2'],['yellow'],['blue'],['salmon'],1111.9192612999977,None,9.0,2.8506903999950737,1111.9192612999977,None,1114.8359681000002,None,7.0,2.197823399998015,1117.1859093999956,None,9.0,1.8984158000021125,1118.985975399999,None,8.0,2.8316321000020253,<function functionImportanceC at 0x0000020280D5E950>,<function functionImportanceB at 0x00000202808BD0D0>,<function functionImportanceA at 0x00000202808BDA60>,,,2.0,2.8316321000020253,6.0,3.0977653000009013,8.0,2.7484267999971053,<function functiondiffA at 0x00000202808BD9D8>,<function functiondiffC at 0x00000202808BDC80>,<function functiondiffB at 0x00000202808BD1E0>,,,,,1088.697181399999,1121.785804399995,None,1127.2689978999988,None,1124.9023048999952,None,22,001,2022_Jul_19_1809,2leo,2021.2.3,60.019578387945074,
3,36,Plan your shopping for new clothing,Stimuli/36A1.jpg,Stimuli/36A2.jpg,Stimuli/36A3.jpg,Stimuli/36B1.jpg,Stimuli/36B2.jpg,Stimuli/36B3.jpg,Stimuli/36C1.jpg,Stimuli/36C2.jpg,Stimuli/36C3.jpg,,,,,0,15,15,36,,,,,,,,1146.7850196,None,1147.7850905999949,None,1153.7849640999993,None,"[-0.378, -0.136]","[0.07, 0.393]","[0.304, -0.26]","[-0.2, 0.346]","[0.399, -0.003]","[-0.203, -0.347]","[-0.377, 0.138]","[0.306, 0.255]","[0.066, -0.395]",,18.006867500000226,12.257272199996805,7.290969299996505,"[-0.32592592592592595, 0.37962962962962965, 0.08611111111111111]","[0.12222222222222222, 0.005555555555555556, 0.36666666666666664]","[1, 1, 1]","[0, 0, 0]","[0, 0, 0]","[7.287072800005262, 12.25349709999864, 18.00341710000066]",0.0029522999975597486,18.006154499998956,['A2'],['B2'],['C1'],['blue'],['yellow'],['salmon'],1173.384217699997,None,9.0,2.2138128000005963,1173.384217699997,None,1177.8674433999986,None,8.0,2.865229199996975,1180.7507925999962,None,8.0,2.2822056999939377,1175.6676592000003,None,10.0,2.1809814000007464,<function functionImportanceA at 0x0000020280D5E730>,<function functionImportanceC at 0x0000020280D5EE18>,<function functionImportanceB at 0x0000020280D5EEA0>,,,7.0,2.1809814000007464,5.0,4.062819799997669,2.0,2.4313981000013882,<function functiondiffA at 0x0000020280D5EF28>,<function functiondiffB at 0x0000020280D5E9D8>,<function functiondiffC at 0x0000020280D5E840>,,,,,1154.8959920999987,1183.0340696999992,None,1187.1005675999986,None,1189.5504782999997,None,22,001,2022_Jul_19_1809,2leo,2021.2.3,60.019578387945074,
3,2,Plan which ingredients you want to use for cooking dinner today,Stimuli/2A1.jpg,Stimuli/2A2.jpg,Stimuli/2A3.jpg,Stimuli/2B1.jpg,Stimuli/2B2.jpg,Stimuli/2B3.jpg,Stimuli/2C1.jpg,Stimuli/2C2.jpg,Stimuli/2C3.jpg,,,,,0,16,16,2,,,,,,,,1192.6169230000014,None,1193.6169850000006,None,1199.6170724999974,None,"[0.306, 0.255]","[-0.377, 0.138]","[0.066, -0.395]","[0.399, -0.003]","[-0.2, 0.346]","[-0.203, -0.347]","[0.07, 0.393]","[-0.378, -0.136]","[0.304, -0.26]",,12.63611349985149,14.352968099854479,13.653553099851706,"[0.2722222222222222, 0.2796296296296296, -0.19814814814814816]","[0.2490740740740741, -0.2037037037037037, 0.3055555555555556]","[1, 1, 1]","[0, 0, 0]","[0, 0, 0]","[12.626951000005647, 13.643719200001215, 14.343451200002164]",0.008742599849938415,14.352155399850744,['A1'],['B2'],['C3'],['yellow'],['salmon'],['blue'],1220.482792099996,None,8.0,1.980080799999996,1220.482792099996,None,1223.1329007999957,None,10.0,3.8310085000048275,1229.7061740999998,None,10.0,5.631719400000293,1233.1160070999977,None,9.0,3.514838000002783,<function functionImportanceC at 0x0000020280D5E598>,<function functionImportanceB at 0x0000020280D5E620>,<function functionImportanceA at 0x0000020280D5E268>,,,9.0,3.514838000002783,8.0,3.1311744000049657,3.0,5.181223499996122,<function functiondiffC at 0x00000202808BD950>,<function functiondiffA at 0x0000020280D5E158>,<function functiondiffB at 0x0000020280D5EB70>,,,,,1205.672931000001,1239.3159821000008,None,1242.999135799997,None,1235.698988199998,None,22,001,2022_Jul_19_1809,2leo,2021.2.3,60.019578387945074,
3,34,Plan what car you want to buy,Stimuli/34A1.jpg,Stimuli/34A2.jpg,Stimuli/34A3.jpg,Stimuli/34B1.jpg,Stimuli/34B2.jpg,Stimuli/34B3.jpg,Stimuli/34C1.jpg,Stimuli/34C2.jpg,Stimuli/34C3.jpg,,,,,0,17,17,34,,,,,,,,1246.848751999998,None,1247.8488083999982,None,1253.8488618999982,None,"[-0.2, 0.346]","[-0.203, -0.347]","[0.399, -0.003]","[-0.377, 0.138]","[0.066, -0.395]","[0.306, 0.255]","[-0.378, -0.136]","[0.304, -0.26]","[0.07, 0.393]",,4.029785299928335,14.613424099930853,18.59647879993281,"[-0.1425925925925926, 0.2657407407407407, 0.29907407407407405]","[0.2712962962962963, 0.2, -0.24444444444444444]","[1, 1, 1]","[0, 0, 0]","[0, 0, 0]","[4.02548100000422, 14.60866089999763, 18.59157899999991]",0.0037804999301442876,18.595319499931065,['A1'],['B3'],['C2'],['salmon'],['yellow'],['blue'],1276.0646504999968,None,9.0,2.813247300000512,1276.0646504999968,None,1278.9646543999988,None,10.0,2.181397799999104,1285.1810502000008,None,7.0,5.698331899999175,1282.231175199995,None,10.0,2.9486029999970924,<function functionImportanceC at 0x00000202818358C8>,<function functionImportanceA at 0x0000020280D5E400>,<function functionImportanceB at 0x00000202808BD7B8>,,,3.0,2.9486029999970924,0.0,3.0978418000013335,6.0,2.615041500001098,<function functiondiffC at 0x00000202808BDF28>,<function functiondiffB at 0x0000020280D5EA60>,<function functiondiffA at 0x0000020280D5E510>,,,,,1257.0071977999978,1296.697542599999,None,1293.9850364000013,None,1289.7810795999976,None,22,001,2022_Jul_19_1809,2leo,2021.2.3,60.019578387945074,
3,28,Plan a one-week camping trip in Spain,Stimuli/28A1.jpg,Stimuli/28A2.jpg,Stimuli/28A3.jpg,Stimuli/28B1.jpg,Stimuli/28B2.jpg,Stimuli/28B3.jpg,Stimuli/28C1.jpg,Stimuli/28C2.jpg,Stimuli/28C3.jpg,,,,,0,18,18,28,,,,,,,,1298.9803717999966,None,1299.9809867000004,None,1305.9808436999956,None,"[-0.2, 0.346]","[0.399, -0.003]","[-0.203, -0.347]","[-0.377, 0.138]","[0.306, 0.255]","[0.066, -0.395]","[-0.378, -0.136]","[0.07, 0.393]","[0.304, -0.26]",,10.231466299992462,9.215272099994763,15.06482939999114,"[0.037037037037037035, 0.387037037037037, -0.3731481481481482]","[-0.3731481481481482, -0.000925925925925926, -0.1111111111111111]","[1, 1, 1]","[0, 0, 0]","[0, 0, 0]","[9.19947410000168, 10.216036899997562, 15.048964299996442]",0.014934499995433725,15.063919599997462,['A2'],['B3'],['C1'],['blue'],['yellow'],['salmon'],1322.6467435999948,None,9.0,2.0804472000017995,1322.6467435999948,None,1335.163243899995,None,9.0,2.9152376000056393,1324.813507699997,None,10.0,3.0312785000060103,1327.8634000999955,None,10.0,7.314966999998433,<function functionImportanceB at 0x000002028114DAE8>,<function functionImportanceA at 0x0000020280D5E1E0>,<function functionImportanceC at 0x000002028114D158>,,,2.0,7.314966999998433,2.0,2.5480134999961592,0.0,2.580888700002106,<function functiondiffC at 0x000002028114DA60>,<function functiondiffA at 0x0000020280D5ED08>,<function functiondiffB at 0x000002028114D6A8>,,,,,1307.1117698000016,1341.7629173999958,None,1344.3294519999981,None,1338.0796608000019,None,22,001,2022_Jul_19_1809,2leo,2021.2.3,60.019578387945074,
3,26,Plan how to wash one round of your laundry ,Stimuli/26A1.jpg,Stimuli/26A2.jpg,Stimuli/26A3.jpg,Stimuli/26B1.jpg,Stimuli/26B2.jpg,Stimuli/26B3.jpg,Stimuli/26C1.jpg,Stimuli/26C2.jpg,Stimuli/26C3.jpg,,,,,0,19,19,26,,,,,,,,1346.429049499995,None,1347.429398100001,None,1353.4293201999972,None,"[0.306, 0.255]","[0.066, -0.395]","[-0.377, 0.138]","[0.399, -0.003]","[-0.203, -0.347]","[-0.2, 0.346]","[0.07, 0.393]","[0.304, -0.26]","[-0.378, -0.136]",,13.972460899989528,12.622659199994814,16.789257699994778,"[-0.18981481481481483, 0.003703703703703704, 0.041666666666666664]","[0.3388888888888889, -0.35185185185185186, 0.31851851851851853]","[1, 1, 1]","[0, 0, 0]","[0, 0, 0]","[12.611233700001321, 13.961382400004368, 16.777767600004154]",0.010572299994237255,16.788171599990164,['A2'],['B3'],['C1'],['yellow'],['blue'],['salmon'],1371.795326200001,None,8.0,2.2639617000022554,1371.795326200001,None,1382.845077099999,None,9.0,2.798835199995665,1379.2451631000004,None,7.0,3.5987488999962807,1374.1121247999981,None,3.0,5.097964900000079,<function functionImportanceA at 0x000002028114D268>,<function functionImportanceB at 0x000002028114D1E0>,<function functionImportanceC at 0x000002028114D048>,,,3.0,5.097964900000079,1.0,2.1479374000045937,10.0,3.7305287000053795,<function functiondiffB at 0x000002028114DB70>,<function functiondiffA at 0x000002028114D598>,<function functiondiffC at 0x000002028114DD90>,,,,,1354.5321742000015,1389.3949659999998,None,1385.6450834999996,None,1391.5615781000015,None,22,001,2022_Jul_19_1809,2leo,2021.2.3,60.019578387945074,
3,29,Plan a day in the mountains ,Stimuli/29A1.jpg,Stimuli/29A2.jpg,Stimuli/29A3.jpg,Stimuli/29B1.jpg,Stimuli/29B2.jpg,Stimuli/29B3.jpg,Stimuli/29C1.jpg,Stimuli/29C2.jpg,Stimuli/29C3.jpg,,,,,0,20,20,29,,,,,,,,1394.0777474999995,None,1395.0780367999978,None,1401.0781131999975,None,"[-0.203, -0.347]","[-0.2, 0.346]","[0.399, -0.003]","[0.304, -0.26]","[-0.378, -0.136]","[0.07, 0.393]","[0.066, -0.395]","[-0.377, 0.138]","[0.306, 0.255]",,10.904782599995087,13.521413299989945,5.8215640999915195,"[0.040740740740740744, 0.4305555555555556, -0.31851851851851853]","[-0.37222222222222223, -0.032407407407407406, -0.1111111111111111]","[1, 1, 1]","[0, 0, 0]","[0, 0, 0]","[5.819298700000218, 10.902868299999682, 13.519296999998915]",0.0013266999885672703,13.520322899988969,['A3'],['B2'],['C1'],['blue'],['salmon'],['yellow'],1416.2439913999988,None,9.0,1.813409500005946,1416.2439913999988,None,1420.9940855999957,None,10.0,3.564947900005791,1418.1108187999998,None,8.0,2.8478585999982897,1424.6273717000004,None,10.0,2.4150040999957127,<function functionImportanceB at 0x00000202808BD158>,<function functionImportanceC at 0x000002028114D7B8>,<function functionImportanceA at 0x00000202808BD400>,,,1.0,2.4150040999957127,1.0,5.247317299996212,3.0,2.2477361999990535,<function functiondiffA at 0x000002028114D378>,<function functiondiffC at 0x000002028114DE18>,<function functiondiffB at 0x000002028114D2F0>,,,,,1402.240907200001,1427.0365747999967,None,1434.9269639999984,None,1432.2270095999993,None,22,001,2022_Jul_19_1809,2leo,2021.2.3,60.019578387945074,
3,21,Plan your sandwich for lunch,Stimuli/21A1.jpg,Stimuli/21A2.jpg,Stimuli/21A3.jpg,Stimuli/21B1.jpg,Stimuli/21B2.jpg,Stimuli/21B3.jpg,Stimuli/21C1.jpg,Stimuli/21C2.jpg,Stimuli/21C3.jpg,,,,,0,21,21,21,,,,,,,,1436.6932087999958,None,1437.6935125999953,None,1443.6935048000014,None,"[-0.378, -0.136]","[0.07, 0.393]","[0.304, -0.26]","[-0.377, 0.138]","[0.306, 0.255]","[0.066, -0.395]","[-0.2, 0.346]","[0.399, -0.003]","[-0.203, -0.347]",,11.666773799996008,8.250285299996904,5.367997399996966,"[0.4064814814814815, 0.10740740740740741, -0.412962962962963]","[0.001851851851851852, -0.3731481481481482, -0.17777777777777778]","[1, 1, 1]","[0, 0, 0]","[0, 0, 0]","[5.359396300002118, 8.241841700000805, 11.658790000001318]",0.00757319999684114,11.665921699997853,['A1'],['B3'],['C2'],['yellow'],['blue'],['salmon'],1456.9596766999966,None,9.0,1.8967926999976044,1456.9596766999966,None,1462.392953399998,None,10.0,1.714832400000887,1458.9096854999952,None,9.0,3.4480294000022695,1464.126224300002,None,10.0,1.965473699994618,<function functionImportanceB at 0x000002028114D9D8>,<function functionImportanceC at 0x000002028114DEA0>,<function functionImportanceA at 0x00000202808BD510>,,,4.0,1.965473699994618,0.0,1.7147407000011299,-0.0,3.4809380999940913,<function functiondiffB at 0x000002028114DBF8>,<function functiondiffC at 0x000002028114D950>,<function functiondiffA at 0x000002028114DF28>,,,,,1444.8162632999956,1471.525909600001,None,1466.076237399997,None,1469.5594764999987,None,22,001,2022_Jul_19_1809,2leo,2021.2.3,60.019578387945074,
3,6,Plan your wedding,Stimuli/6A1.jpg,Stimuli/6A2.jpg,Stimuli/6A3.jpg,Stimuli/6B1.jpg,Stimuli/6B2.jpg,Stimuli/6B3.jpg,Stimuli/6C1.jpg,Stimuli/6C2.jpg,Stimuli/6C3.jpg,,,,,0,22,22,6,,,,,,,,1472.7591191999963,None,1473.7591533000013,None,1479.7592603000012,None,"[-0.378, -0.136]","[0.304, -0.26]","[0.07, 0.393]","[-0.377, 0.138]","[0.066, -0.395]","[0.306, 0.255]","[-0.2, 0.346]","[-0.203, -0.347]","[0.399, -0.003]",,14.152576799875533,7.636430599879532,10.85276149987476,"[-0.33055555555555555, -0.1638888888888889, 0.2564814814814815]","[0.0824074074074074, 0.29074074074074074, -0.23981481481481481]","[1, 1, 1]","[0, 0, 0]","[0, 0, 0]","[7.630546899999899, 10.846642399999837, 14.146883499997784]",0.005197299877181649,14.15177979987493,['A2'],['B1'],['C1'],['blue'],['salmon'],['yellow'],1499.458387300001,None,9.0,1.7803318000005675,1499.458387300001,None,1511.8249735999998,None,9.0,4.265024100001028,1502.9251312999986,None,10.0,5.181457499995304,1507.6747035000008,None,10.0,4.115046799997799,<function functionImportanceB at 0x0000020280D5EC80>,<function functionImportanceA at 0x000002028114DC80>,<function functionImportanceC at 0x0000020280D5E048>,,,8.0,4.115046799997799,1.0,2.3976667000024463,2.0,4.764116699996521,<function functiondiffB at 0x0000020280D5EAE8>,<function functiondiffC at 0x00000202808BD378>,<function functiondiffA at 0x0000020280D5E0D0>,,,,,1484.8459469000009,1524.3411936999983,None,1515.2747418,None,1520.0582361999986,None,22,001,2022_Jul_19_1809,2leo,2021.2.3,60.019578387945074,
3,37,Plan your cleaning routine ,Stimuli/37A1.jpg,Stimuli/37A2.jpg,Stimuli/37A3.jpg,Stimuli/37B1.jpg,Stimuli/37B2.jpg,Stimuli/37B3.jpg,Stimuli/37C1.jpg,Stimuli/37C2.jpg,Stimuli/37C3.jpg,,,,,0,23,23,37,,,,,,,,1525.9574624000015,None,1526.9578104999964,None,1532.9578267999968,None,"[-0.203, -0.347]","[-0.2, 0.346]","[0.399, -0.003]","[0.066, -0.395]","[-0.377, 0.138]","[0.306, 0.255]","[0.304, -0.26]","[-0.378, -0.136]","[0.07, 0.393]",,4.851859599999443,9.152226999998675,12.935544599997229,"[-0.18425925925925926, 0.29259259259259257, -0.33425925925925926]","[-0.30648148148148147, 0.2324074074074074, -0.11018518518518519]","[1, 1, 1]","[0, 0, 0]","[0, 0, 0]","[4.842973099999654, 9.14286010000069, 12.925973099998373]",0.008475700000417419,12.934239299996989,['A1'],['B3'],['C2'],['yellow'],['blue'],['salmon'],1547.506883199996,None,8.0,2.2634849999958533,1547.506883199996,None,1549.8738971999992,None,8.0,4.2641582999931416,1557.1570015999969,None,10.0,3.3982254000002285,1554.1571575999988,None,9.0,2.9821242000034545,<function functionImportanceC at 0x00000202815E9048>,<function functionImportanceA at 0x0000020280D5E488>,<function functionImportanceB at 0x00000202815E9400>,,,5.0,2.9821242000034545,5.0,2.1814775000020745,4.0,5.080759800002852,<function functiondiffB at 0x000002028114D620>,<function functiondiffA at 0x000002028114D730>,<function functiondiffC at 0x00000202815E9950>,,,,,1534.097216999995,1565.6065963,None,1560.5068388,None,1567.8067353000006,None,22,001,2022_Jul_19_1809,2leo,2021.2.3,60.019578387945074,
3,12,Plan the ingredients to mix yourself a cocktail,Stimuli/12A1.jpg,Stimuli/12A2.jpg,Stimuli/12A3.jpg,Stimuli/12B1.jpg,Stimuli/12B2.jpg,Stimuli/12B3.jpg,Stimuli/12C1.jpg,Stimuli/12C2.jpg,Stimuli/12C3.jpg,,,,,0,24,24,12,,,,,,,,1570.572753200002,None,1571.5731089999972,None,1577.573182299995,None,"[0.306, 0.255]","[-0.377, 0.138]","[0.066, -0.395]","[0.399, -0.003]","[-0.2, 0.346]","[-0.203, -0.347]","[0.07, 0.393]","[-0.378, -0.136]","[0.304, -0.26]",,9.526601899997331,15.860076099990692,17.94366399999126,"[0.25462962962962965, 0.3592592592592593, 0.27870370370370373]","[0.2222222222222222, 0.012037037037037037, -0.24444444444444444]","[1, 1, 1]","[0, 0, 0]","[0, 0, 0]","[9.51360580000619, 15.846827600005781, 17.930013100005453]",0.012556299996504094,17.94229789999372,['A1'],['B1'],['C3'],['salmon'],['blue'],['yellow'],1597.122445699999,None,9.0,2.1800043000039295,1597.122445699999,None,1604.605515999996,None,10.0,2.1318942999932915,1602.255651899999,None,8.0,2.331729400000768,1599.3890916000018,None,9.0,2.864502500000526,<function functionImportanceA at 0x00000202815E91E0>,<function functionImportanceB at 0x00000202815E9488>,<function functionImportanceC at 0x00000202815E90D0>,,,0.0,2.864502500000526,1.0,4.21455689999857,2.0,1.7309386000051745,<function functiondiffC at 0x000002028114DD08>,<function functiondiffA at 0x0000020280D5E8C8>,<function functiondiffB at 0x000002028114D488>,,,,,1578.7068756000008,1612.1221155999956,None,1616.3553277999963,None,1606.7222550000006,None,22,001,2022_Jul_19_1809,2leo,2021.2.3,60.019578387945074,
3,38,Plan how you want to go for a run,Stimuli/38A1.jpg,Stimuli/38A2.jpg,Stimuli/38A3.jpg,Stimuli/38B1.jpg,Stimuli/38B2.jpg,Stimuli/38B3.jpg,Stimuli/38C1.jpg,Stimuli/38C2.jpg,Stimuli/38C3.jpg,,,,,0,25,25,38,,,,,,,,1617.604806999996,None,1618.6051283999986,None,1624.6051780999987,None,"[-0.377, 0.138]","[0.066, -0.395]","[0.306, 0.255]","[-0.378, -0.136]","[0.304, -0.26]","[0.07, 0.393]","[-0.2, 0.346]","[-0.203, -0.347]","[0.399, -0.003]",,5.315365599992219,15.398299499989662,9.91744889999245,"[0.006481481481481481, -0.22685185185185186, -0.3787037037037037]","[-0.35833333333333334, 0.3194444444444444, -0.17592592592592593]","[1, 1, 1]","[0, 0, 0]","[0, 0, 0]","[5.300123399996664, 9.901794500001415, 15.382905300000857]",0.014719499988132156,15.397460399988631,['A2'],['B1'],['C1'],['yellow'],['salmon'],['blue'],1641.671131899995,None,9.0,1.6137277000016184,1641.671131899995,None,1643.4379837000015,None,10.0,2.914587200000824,1646.2878895999966,None,9.0,2.3650258999987273,1648.671125599998,None,9.0,2.365276199998334,<function functionImportanceC at 0x000002028114D840>,<function functionImportanceB at 0x00000202815E9B70>,<function functionImportanceA at 0x00000202815E9840>,,,0.0,2.365276199998334,4.0,1.9482614000007743,3.0,2.731408299994655,<function functiondiffC at 0x00000202815E9E18>,<function functiondiffB at 0x00000202815E92F0>,<function functiondiffA at 0x00000202815E9F28>,,,,,1625.8042767000006,1656.6875172,None,1653.9375679000004,None,1651.0375776,None,22,001,2022_Jul_19_1809,2leo,2021.2.3,60.019578387945074,
3,18,Plan your Saturday night ,Stimuli/18A1.jpg,Stimuli/18A2.jpg,Stimuli/18A3.jpg,Stimuli/18B1.jpg,Stimuli/18B2.jpg,Stimuli/18B3.jpg,Stimuli/18C1.jpg,Stimuli/18C2.jpg,Stimuli/18C3.jpg,,,,,0,26,26,18,,,,,,,,1658.1556574999995,None,1659.1705596999964,None,1665.1704901999983,None,"[-0.203, -0.347]","[-0.2, 0.346]","[0.399, -0.003]","[0.066, -0.395]","[-0.377, 0.138]","[0.306, 0.255]","[0.304, -0.26]","[-0.378, -0.136]","[0.07, 0.393]",,11.36880000000383,3.3194858000060776,15.15248860000429,"[-0.3472222222222222, -0.2101851851851852, 0.33796296296296297]","[0.10092592592592593, -0.3435185185185185, -0.3037037037037037]","[1, 1, 1]","[0, 0, 0]","[0, 0, 0]","[3.3098982999945292, 11.359572899993509, 15.142727399994328]",0.008804600001894869,15.151451700003236,['A1'],['B2'],['C1'],['yellow'],['salmon'],['blue'],1681.8866879999987,None,8.0,1.730347900003835,1681.8866879999987,None,1696.0364928999988,None,5.0,2.731258499996329,1683.6534662999984,None,8.0,8.447884799999883,1692.1532598999984,None,8.0,3.84866879999754,<function functionImportanceB at 0x00000202815E96A8>,<function functionImportanceA at 0x00000202815E9C80>,<function functionImportanceC at 0x00000202808BDE18>,,,7.0,3.84866879999754,4.0,3.6645390999983647,4.0,6.814232099997753,<function functiondiffB at 0x00000202815E98C8>,<function functiondiffC at 0x0000020281A3D510>,<function functiondiffA at 0x000002028114D400>,,,,,1666.2591675000003,1709.3194774000003,None,1698.7363680999988,None,1705.5695214000007,None,22,001,2022_Jul_19_1809,2leo,2021.2.3,60.019578387945074,
3,44,Plan a party at your place,Stimuli/44A1.jpg,Stimuli/44A2.jpg,Stimuli/44A3.jpg,Stimuli/44B1.jpg,Stimuli/44B2.jpg,Stimuli/44B3.jpg,Stimuli/44C1.jpg,Stimuli/44C2.jpg,Stimuli/44C3.jpg,,,,,0,27,27,44,,,,,,,,1712.5022529999987,None,1713.5024878999975,None,1719.5025084000008,None,"[-0.377, 0.138]","[0.306, 0.255]","[0.066, -0.395]","[-0.378, -0.136]","[0.07, 0.393]","[0.304, -0.26]","[-0.2, 0.346]","[0.399, -0.003]","[-0.203, -0.347]",,3.84505899999931,12.96180149999418,17.8953920999993,"[0.337037037037037, -0.37962962962962965, -0.19537037037037036]","[0.2712962962962963, -0.17962962962962964, -0.3175925925925926]","[1, 1, 1]","[0, 0, 0]","[0, 0, 0]","[3.831111999999848, 12.947726300000795, 17.88092239999969]",0.013379399999394082,17.893989799995325,['A2'],['B1'],['C3'],['yellow'],['salmon'],['blue'],1738.9851063999959,None,8.0,2.130492600001162,1738.9851063999959,None,1741.1853160999963,None,9.0,2.0977281000014045,1745.3349770999994,None,9.0,2.8319438000035007,1743.3018391000005,None,9.0,2.0150279000008595,<function functionImportanceC at 0x0000020281A3D0D0>,<function functionImportanceA at 0x00000202815E9A60>,<function functionImportanceB at 0x0000020281A3D488>,,,1.0,2.0150279000008595,4.0,4.630578199998126,3.0,2.7978109999967273,<function functiondiffB at 0x00000202815E97B8>,<function functiondiffA at 0x000002028114D8C8>,<function functiondiffC at 0x0000020281A3DC80>,,,,,1720.6188275999957,1750.9683570999987,None,1748.168189099997,None,1755.6181058000002,None,22,001,2022_Jul_19_1809,2leo,2021.2.3,60.019578387945074,
3,27,Plan what festival to visit with your friends,Stimuli/27A1.jpg,Stimuli/27A2.jpg,Stimuli/27A3.jpg,Stimuli/27B1.jpg,Stimuli/27B2.jpg,Stimuli/27B3.jpg,Stimuli/27C1.jpg,Stimuli/27C2.jpg,Stimuli/27C3.jpg,,,,,0,28,28,27,,,,,,,,1757.6845982000013,None,1758.6845191999964,None,1764.6845237000016,None,"[0.07, 0.393]","[0.304, -0.26]","[-0.378, -0.136]","[0.399, -0.003]","[-0.203, -0.347]","[-0.2, 0.346]","[0.306, 0.255]","[0.066, -0.395]","[-0.377, 0.138]",,8.113585099992633,13.080287899989344,3.7806984999915585,"[0.018518518518518517, 0.10740740740740741, -0.22685185185185186]","[-0.40925925925925927, 0.35648148148148145, -0.39351851851851855]","[1, 1, 1]","[0, 0, 0]","[0, 0, 0]","[3.7736413999955403, 8.107144199995673, 13.073447399998258]",0.006035999991581775,13.079147299991746,['A1'],['B2'],['C2'],['salmon'],['blue'],['yellow'],1779.3504122999948,None,9.0,1.8473598000055063,1779.3504122999948,None,1784.0672339000012,None,9.0,1.6985070000009728,1781.2673723999978,None,9.0,2.781461099999433,1785.7672853999975,None,8.0,3.1149268000008306,<function functionImportanceB at 0x0000020281A3DBF8>,<function functionImportanceC at 0x0000020281A3D268>,<function functionImportanceA at 0x0000020281A3DAE8>,,,1.0,3.1149268000008306,3.0,2.0307319999992615,3.0,3.030893399998604,<function functiondiffB at 0x00000202815E9510>,<function functiondiffA at 0x00000202815E9D90>,<function functiondiffC at 0x00000202815E99D8>,,,,,1765.7920355999959,1791.9338685999974,None,1788.8838835999995,None,1793.983544099996,None,22,001,2022_Jul_19_1809,2leo,2021.2.3,60.019578387945074,
3,10,Plan a restaurant visit with your family on the weekend ,Stimuli/10A1.jpg,Stimuli/10A2.jpg,Stimuli/10A3.jpg,Stimuli/10B1.jpg,Stimuli/10B2.jpg,Stimuli/10B3.jpg,Stimuli/10C1.jpg,Stimuli/10C2.jpg,Stimuli/10C3.jpg,,,,,0,29,29,10,,,,,,,,1797.0839130999957,None,1798.0835668,None,1804.0837993999958,None,"[-0.2, 0.346]","[-0.203, -0.347]","[0.399, -0.003]","[-0.377, 0.138]","[0.066, -0.395]","[0.306, 0.255]","[-0.378, -0.136]","[0.304, -0.26]","[0.07, 0.393]",,12.44962659990415,23.132817799902114,19.64957919990411,"[0.35462962962962963, -0.3574074074074074, 0.13703703703703704]","[-0.021296296296296296, -0.11388888888888889, -0.4212962962962963]","[1, 1, 1]","[0, 0, 0]","[0, 0, 0]","[12.447551099998236, 19.647251499998674, 23.130695400002878]",0.0013363999023567885,23.131881599903863,['A3'],['B2'],['C1'],['salmon'],['yellow'],['blue'],1831.6324378999998,None,8.0,2.130444800000987,1831.6324378999998,None,1838.9325911999986,None,8.0,3.6149588999978732,1836.5490606999956,None,10.0,5.0978429000024335,1842.6989896999949,None,9.0,2.398615999998583,<function functionImportanceB at 0x0000020281A3D9D8>,<function functionImportanceC at 0x0000020281A3DD90>,<function functionImportanceA at 0x0000020281A3D7B8>,,,5.0,2.398615999998583,6.0,5.931401400004688,6.0,3.4477603000050294,<function functiondiffC at 0x0000020281A3D1E0>,<function functiondiffA at 0x0000020281A3D6A8>,<function functiondiffB at 0x0000020281A3DD08>,,,,,1808.0337824999951,1849.0655383999983,None,1855.7652849000006,None,1844.9657110999979,None,22,001,2022_Jul_19_1809,2leo,2021.2.3,60.019578387945074,
3,7,Plan your Sunday breakfast ,Stimuli/7A1.jpg,Stimuli/7A2.jpg,Stimuli/7A3.jpg,Stimuli/7B1.jpg,Stimuli/7B2.jpg,Stimuli/7B3.jpg,Stimuli/7C1.jpg,Stimuli/7C2.jpg,Stimuli/7C3.jpg,,,,,0,30,30,7,,,,,,,,1934.1298002999974,None,1935.1299005999972,None,1941.1297273000018,None,"[0.066, -0.395]","[0.306, 0.255]","[-0.377, 0.138]","[0.304, -0.26]","[0.07, 0.393]","[-0.378, -0.136]","[-0.203, -0.347]","[0.399, -0.003]","[-0.2, 0.346]",,2.769512199847668,12.853135099852807,10.086284599849023,"[0.30185185185185187, -0.25925925925925924, -0.34074074074074073]","[0.20185185185185187, -0.39166666666666666, -0.17037037037037037]","[1, 1, 1]","[0, 0, 0]","[0, 0, 0]","[2.760071999997308, 10.076396700002078, 12.843342300002405]",0.008874199847923592,12.851980399849708,['A2'],['B3'],['C1'],['salmon'],['blue'],['yellow'],1960.445659799996,None,9.0,2.0136591999980737,1960.445659799996,None,1963.695534999999,None,9.0,4.448112500002026,1974.028544599998,None,10.0,5.1649053000001,1968.7785401,None,10.0,5.0319368000054965,<function functionImportanceC at 0x0000020281A3DA60>,<function functionImportanceA at 0x0000020281A3D2F0>,<function functionImportanceB at 0x0000020281A3D378>,,,2.0,5.0319368000054965,1.0,3.3313782999975956,2.0,5.78137080000306,<function functiondiffB at 0x00000202815E9D08>,<function functiondiffC at 0x000002028114D0D0>,<function functiondiffA at 0x0000020281A3D400>,,,,,1947.1381518999988,1987.7447142999954,None,1977.861985399999,None,1983.345173099995,None,22,001,2022_Jul_19_1809,2leo,2021.2.3,60.019578387945074,
3,20,Plan a tea party with your friends,Stimuli/20A1.jpg,Stimuli/20A2.jpg,Stimuli/20A3.jpg,Stimuli/20B1.jpg,Stimuli/20B2.jpg,Stimuli/20B3.jpg,Stimuli/20C1.jpg,Stimuli/20C2.jpg,Stimuli/20C3.jpg,,,,,0,31,31,20,,,,,,,,1990.0954313999973,None,1991.0948894999965,None,1997.0948776000005,None,"[0.304, -0.26]","[-0.378, -0.136]","[0.07, 0.393]","[0.066, -0.395]","[-0.377, 0.138]","[0.306, 0.255]","[-0.203, -0.347]","[-0.2, 0.346]","[0.399, -0.003]",,9.012035399915476,12.528351899913105,4.812227599912148,"[0.4398148148148148, 0.046296296296296294, 0.04814814814814815]","[-0.006481481481481481, 0.4324074074074074, -0.39166666666666666]","[1, 1, 1]","[0, 0, 0]","[0, 0, 0]","[4.8023339999999735, 9.002656599994225, 12.518896900000982]",0.008710199916095007,12.527465299914184,['A3'],['B1'],['C3'],['blue'],['salmon'],['yellow'],2013.7606367999979,None,9.0,1.9141319999980624,2013.7606367999979,None,2015.7625604999994,None,9.0,2.597810799998115,2020.8606536000007,None,8.0,6.382109899997886,2024.8439144000004,None,7.0,2.181694699997024,<function functionImportanceC at 0x00000202824A5488>,<function functionImportanceB at 0x0000020280D5E378>,<function functionImportanceA at 0x0000020281A3D158>,,,2.0,2.181694699997024,4.0,2.2816290999980993,3.0,3.7480414000019664,<function functiondiffB at 0x0000020281A3D048>,<function functiondiffC at 0x0000020281A3D598>,<function functiondiffA at 0x0000020281A3D840>,,,,,2000.7744754000014,2034.193728499995,None,2027.510538399998,None,2030.6938984000008,None,22,001,2022_Jul_19_1809,2leo,2021.2.3,60.019578387945074,
3,33,Plan the items to decorate your Christmas tree,Stimuli/33A1.jpg,Stimuli/33A2.jpg,Stimuli/33A3.jpg,Stimuli/33B1.jpg,Stimuli/33B2.jpg,Stimuli/33B3.jpg,Stimuli/33C1.jpg,Stimuli/33C2.jpg,Stimuli/33C3.jpg,,,,,0,32,32,33,,,,,,,,2036.0105336999986,None,2037.0102130000014,None,2043.0101931999961,None,"[0.304, -0.26]","[-0.378, -0.136]","[0.07, 0.393]","[0.066, -0.395]","[-0.377, 0.138]","[0.306, 0.255]","[-0.203, -0.347]","[-0.2, 0.346]","[0.399, -0.003]",,15.355769999972836,7.63984399997571,11.639923699971405,"[0.27685185185185185, 0.3768518518518518, 0.30185185185185187]","[0.20462962962962963, -0.005555555555555556, -0.2601851851851852]","[1, 1, 1]","[0, 0, 0]","[0, 0, 0]","[7.631312700003036, 11.63108839999768, 15.347663000000466]",0.007667899975785986,15.355229699976917,['A1'],['B3'],['C3'],['salmon'],['blue'],['yellow'],2060.5093641999993,None,9.0,1.3800525000042398,2060.5093641999993,None,2067.742685099998,None,8.0,2.398582900001202,2061.997109799995,None,4.0,3.414450399999623,2065.9095294,None,8.0,2.315190599998459,<function functionImportanceB at 0x00000202824A5268>,<function functionImportanceA at 0x0000020280D5ED90>,<function functionImportanceC at 0x00000202824A5620>,,,6.0,2.315190599998459,3.0,1.6475642000004882,3.0,2.647831700000097,<function functiondiffB at 0x0000020281A3D8C8>,<function functiondiffA at 0x0000020281A3DEA0>,<function functiondiffC at 0x0000020281A3D950>,,,,,2044.6926151000007,2072.9092285000006,None,2070.1092893999958,None,2074.442603800002,None,22,001,2022_Jul_19_1809,2leo,2021.2.3,60.019578387945074,
3,11,Plan a hike in nature on a free day,Stimuli/11A1.jpg,Stimuli/11A2.jpg,Stimuli/11A3.jpg,Stimuli/11B1.jpg,Stimuli/11B2.jpg,Stimuli/11B3.jpg,Stimuli/11C1.jpg,Stimuli/11C2.jpg,Stimuli/11C3.jpg,,,,,0,33,33,11,,,,,,,,2077.2265816,None,2078.2256087999995,None,2084.225913800001,None,"[-0.2, 0.346]","[0.399, -0.003]","[-0.203, -0.347]","[-0.377, 0.138]","[0.306, 0.255]","[0.066, -0.395]","[-0.378, -0.136]","[0.07, 0.393]","[0.304, -0.26]",,12.082207799998287,5.632876000003307,9.216329800001404,"[0.26481481481481484, 0.04722222222222222, -0.24166666666666667]","[0.19166666666666668, 0.32407407407407407, 0.325]","[1, 1, 1]","[0, 0, 0]","[0, 0, 0]","[5.6168468999967445, 9.19991079999454, 12.06654599999456]",0.015261699998518452,12.081341600001906,['A1'],['B2'],['C2'],['blue'],['yellow'],['salmon'],2097.9083972000008,None,9.0,2.213455900004192,2097.9083972000008,None,2103.058424199997,None,9.0,1.648603199995705,2100.1919225999955,None,8.0,2.847659400002158,2104.7250216999964,None,8.0,2.2483675999974366,<function functionImportanceB at 0x00000202815E9620>,<function functionImportanceC at 0x00000202824A51E0>,<function functionImportanceA at 0x00000202815E9730>,,,2.0,2.2483675999974366,3.0,3.2643272999994224,2.0,2.4983745999998064,<function functiondiffA at 0x00000202824A58C8>,<function functiondiffB at 0x00000202824A5D08>,<function functiondiffC at 0x00000202824A5C80>,,,,,2085.3580019,2106.958239300002,None,2110.2416464999988,None,2112.758202500001,None,22,001,2022_Jul_19_1809,2leo,2021.2.3,60.019578387945074,
3,35,Plan how you want to do your grocery shopping ,Stimuli/35A1.jpg,Stimuli/35A2.jpg,Stimuli/35A3.jpg,Stimuli/35B1.jpg,Stimuli/35B2.jpg,Stimuli/35B3.jpg,Stimuli/35C1.jpg,Stimuli/35C2.jpg,Stimuli/35C3.jpg,,,,,0,34,34,35,,,,,,,,2114.308939900002,None,2115.3245008999947,None,2121.3246733999986,None,"[0.399, -0.003]","[-0.2, 0.346]","[-0.203, -0.347]","[0.306, 0.255]","[-0.377, 0.138]","[0.066, -0.395]","[0.07, 0.393]","[-0.378, -0.136]","[0.304, -0.26]",,6.172181299996737,12.488987099997757,18.555758700000297,"[0.38333333333333336, 0.3453703703703704, 0.32407407407407407]","[0.016666666666666666, 0.21851851851851853, -0.28888888888888886]","[1, 1, 1]","[0, 0, 0]","[0, 0, 0]","[6.1618149999994785, 12.4784329000031, 18.544777299997804]",0.009858599994913675,18.55438389999472,['A1'],['B1'],['C3'],['salmon'],['yellow'],['blue'],2141.5571587000013,None,8.0,2.5472211000014795,2141.5571587000013,None,2146.4569770000016,None,10.0,2.431656499997189,2144.240573199997,None,10.0,2.2646031999975094,2148.9072197999994,None,6.0,2.3816733000057866,<function functionImportanceB at 0x00000202824A5378>,<function functionImportanceC at 0x0000020281FFE598>,<function functionImportanceA at 0x00000202824A5950>,,,2.0,2.3816733000057866,5.0,2.297955299996829,7.0,6.597517700000026,<function functiondiffB at 0x00000202824A5D90>,<function functiondiffA at 0x00000202824A5840>,<function functiondiffC at 0x0000020281A3DE18>,,,,,2122.5280570999967,2157.890256999999,None,2151.2904962999964,None,2160.2067305999954,None,22,001,2022_Jul_19_1809,2leo,2021.2.3,60.019578387945074,
3,19,Plan how you want your garden to look like,Stimuli/19A1.jpg,Stimuli/19A2.jpg,Stimuli/19A3.jpg,Stimuli/19B1.jpg,Stimuli/19B2.jpg,Stimuli/19B3.jpg,Stimuli/19C1.jpg,Stimuli/19C2.jpg,Stimuli/19C3.jpg,,,,,0,35,35,19,,,,,,,,2162.0244907000015,None,2163.039872000001,None,2169.0400364000016,None,"[0.07, 0.393]","[-0.378, -0.136]","[0.304, -0.26]","[0.306, 0.255]","[-0.377, 0.138]","[0.066, -0.395]","[0.399, -0.003]","[-0.2, 0.346]","[-0.203, -0.347]",,9.705902799920295,5.189376399917819,12.023756199916534,"[-0.32222222222222224, 0.25833333333333336, 0.3824074074074074]","[0.08888888888888889, -0.225, -0.030555555555555555]","[1, 1, 1]","[0, 0, 0]","[0, 0, 0]","[5.1741668000031495, 9.690869400001247, 12.00840959999914]",0.014417899918043986,12.02208599991718,['A3'],['B2'],['C1'],['yellow'],['salmon'],['blue'],2185.1392934999967,None,9.0,1.7621536000006017,2185.1392934999967,None,2194.5058521999963,None,10.0,3.0319533000001684,2188.075050899999,None,10.0,3.964510000005248,2190.955965699999,None,9.0,2.1817690999960178,<function functionImportanceB at 0x00000202824A5A60>,<function functionImportanceA at 0x00000202824A52F0>,<function functionImportanceC at 0x0000020281FFE840>,,,2.0,2.1817690999960178,4.0,3.0976670999953058,3.0,2.547772399993846,<function functiondiffA at 0x0000020281A3DF28>,<function functiondiffB at 0x00000202824A5EA0>,<function functiondiffC at 0x00000202824A5F28>,,,,,2172.650345000002,2196.1558952999985,None,2199.505752899997,None,2202.2057254999963,None,22,001,2022_Jul_19_1809,2leo,2021.2.3,60.019578387945074,
3,41,Plan how you want to have dinner tonight ,Stimuli/41A1.jpg,Stimuli/41A2.jpg,Stimuli/41A3.jpg,Stimuli/41B1.jpg,Stimuli/41B2.jpg,Stimuli/41B3.jpg,Stimuli/41C1.jpg,Stimuli/41C2.jpg,Stimuli/41C3.jpg,,,,,0,36,36,41,,,,,,,,2206.706765199997,None,2207.722013599996,None,2213.7221606999956,None,"[-0.2, 0.346]","[-0.203, -0.347]","[0.399, -0.003]","[-0.378, -0.136]","[0.304, -0.26]","[0.07, 0.393]","[-0.377, 0.138]","[0.066, -0.395]","[0.306, 0.255]",,4.1998738999900525,11.632299299992155,18.915686099993763,"[-0.16944444444444445, -0.3416666666666667, 0.3712962962962963]","[0.2935185185185185, -0.1259259259259259, 0.21666666666666667]","[1, 1, 1]","[0, 0, 0]","[0, 0, 0]","[4.193576300000132, 11.625751399995352, 18.908708499999193]",0.005863199992745649,18.914311999993515,['A1'],['B1'],['C3'],['blue'],['yellow'],['salmon'],2234.4546058999986,None,8.0,2.4638190000041504,2234.4546058999986,None,2244.9711802999955,None,7.0,2.848627100000158,2240.6713279999967,None,9.0,4.098530800001754,2237.004630999996,None,10.0,3.6311619999978575,<function functionImportanceA at 0x00000202824A57B8>,<function functionImportanceB at 0x0000020281FFED08>,<function functionImportanceC at 0x0000020281FFE378>,,,5.0,3.6311619999978575,2.0,6.064185499999439,3.0,1.9479944999984582,<function functiondiffA at 0x00000202824A5E18>,<function functiondiffB at 0x00000202824A5400>,<function functiondiffC at 0x0000020281FFE8C8>,,,,,2215.061197099996,2247.587739900002,None,2253.6708920999954,None,2255.654227799998,None,22,001,2022_Jul_19_1809,2leo,2021.2.3,60.019578387945074,
3,0,Plan a barbecue,Stimuli/0A1.jpg,Stimuli/0A2.jpg,Stimuli/0A3.jpg,Stimuli/0B1.jpg,Stimuli/0B2.jpg,Stimuli/0B3.jpg,Stimuli/0C1.jpg,Stimuli/0C2.jpg,Stimuli/0C3.jpg,,,,,0,37,37,0,,,,,,,,2257.5222613000005,None,2258.5372161999985,None,2264.5373508999983,None,"[0.399, -0.003]","[-0.2, 0.346]","[-0.203, -0.347]","[0.07, 0.393]","[-0.378, -0.136]","[0.304, -0.26]","[0.306, 0.255]","[-0.377, 0.138]","[0.066, -0.395]",,16.85301159995288,11.603173399947991,6.703940999948827,"[0.08148148148148149, 0.08425925925925926, 0.3768518518518518]","[-0.44166666666666665, 0.3490740740740741, 0.008333333333333333]","[1, 1, 1]","[0, 0, 0]","[0, 0, 0]","[6.7003713000012795, 11.600042899997788, 16.850148600002285]",0.0024575999486842193,16.852275199948053,['A1'],['B1'],['C3'],['blue'],['salmon'],['yellow'],2284.3030471999955,None,8.0,2.1798221999997622,2284.3030471999955,None,2286.553368299996,None,8.0,2.41427709999698,2293.0199080999955,None,9.0,1.9486030999978539,2290.3032927999957,None,9.0,4.0149164000031305,<function functionImportanceC at 0x00000202815E9158>,<function functionImportanceA at 0x000002028114D510>,<function functionImportanceB at 0x00000202815E9268>,,,4.0,4.0149164000031305,9.0,3.1310835999975097,3.0,5.330628799994884,<function functiondiffB at 0x00000202824A56A8>,<function functiondiffA at 0x00000202824A5B70>,<function functiondiffC at 0x00000202824A59D8>,,,,,2266.984405299998,2300.6859676999957,None,2294.9530614999967,None,2303.4527667,None,22,001,2022_Jul_19_1809,2leo,2021.2.3,60.019578387945074,
3,23,Plan a city trip,Stimuli/23A1.jpg,Stimuli/23A2.jpg,Stimuli/23A3.jpg,Stimuli/23B1.jpg,Stimuli/23B2.jpg,Stimuli/23B3.jpg,Stimuli/23C1.jpg,Stimuli/23C2.jpg,Stimuli/23C3.jpg,,,,,0,38,38,23,,,,,,,,2305.504911099997,None,2306.519430200002,None,2312.5193949999957,None,"[0.066, -0.395]","[-0.377, 0.138]","[0.306, 0.255]","[-0.203, -0.347]","[-0.2, 0.346]","[0.399, -0.003]","[0.304, -0.26]","[-0.378, -0.136]","[0.07, 0.393]",,5.1674156000008225,6.800597200002812,13.167262000002665,"[-0.3287037037037037, -0.13425925925925927, -0.31296296296296294]","[0.10185185185185185, 0.31851851851851853, -0.17314814814814813]","[1, 1, 1]","[0, 0, 0]","[0, 0, 0]","[5.159290700001293, 6.792166300001554, 13.158609499994782]",0.00761659999989206,13.166079400005401,['A2'],['B2'],['C2'],['yellow'],['blue'],['salmon'],2327.318871999996,None,9.0,1.8470718000025954,2327.318871999996,None,2331.6687797999984,None,9.0,1.8983548000032897,2333.5517938999983,None,8.0,1.7981520999965142,2329.2687216999984,None,10.0,2.3816248000002815,<function functionImportanceA at 0x0000020281FFE7B8>,<function functionImportanceC at 0x0000020281FFE2F0>,<function functionImportanceB at 0x0000020281FFEAE8>,,,3.0,2.3816248000002815,3.0,2.797306100001151,-0.0,3.397865200000524,<function functiondiffA at 0x00000202824A5598>,<function functiondiffB at 0x0000020281A3D730>,<function functiondiffC at 0x0000020281A3DB70>,,,,,2313.6742024999985,2335.3351618000015,None,2338.1519109,None,2341.5684103999956,None,22,001,2022_Jul_19_1809,2leo,2021.2.3,60.019578387945074,
3,32,Plan how you want to relax after a workday,Stimuli/32A1.jpg,Stimuli/32A2.jpg,Stimuli/32A3.jpg,Stimuli/32B1.jpg,Stimuli/32B2.jpg,Stimuli/32B3.jpg,Stimuli/32C1.jpg,Stimuli/32C2.jpg,Stimuli/32C3.jpg,,,,,0,39,39,32,,,,,,,,2343.636890599999,None,2344.651495799997,None,2350.6515973999994,None,"[-0.378, -0.136]","[0.07, 0.393]","[0.304, -0.26]","[-0.2, 0.346]","[0.399, -0.003]","[-0.203, -0.347]","[-0.377, 0.138]","[0.306, 0.255]","[0.066, -0.395]",,8.633681399936904,14.517080299934605,7.85094859993842,"[0.32592592592592595, 0.325, -0.16111111111111112]","[0.24722222222222223, -0.275, 0.35462962962962963]","[1, 1, 1]","[0, 0, 0]","[0, 0, 0]","[7.83492689999548, 8.618087800001376, 14.501480899998569]",0.014925199939170852,14.516083199938294,['A3'],['B1'],['C2'],['yellow'],['blue'],['salmon'],2368.6009526999987,None,9.0,1.5633739000040805,2368.6009526999987,None,2374.750586000002,None,10.0,3.1150464000020293,2371.000803899995,None,9.0,4.497691000004124,2378.9686699000013,None,9.0,3.531752899994899,<function functionImportanceB at 0x0000020281FFE158>,<function functionImportanceC at 0x0000020281FFEEA0>,<function functionImportanceA at 0x0000020281FFE1E0>,,,2.0,3.531752899994899,5.0,3.0146168999999645,3.0,1.8648886999944807,<function functiondiffC at 0x0000020281FFE730>,<function functiondiffB at 0x0000020281FFEF28>,<function functiondiffA at 0x0000020281FFEB70>,,,,,2353.6327552000002,2386.850477299995,None,2384.8013072999966,None,2381.4007348000014,None,22,001,2022_Jul_19_1809,2leo,2021.2.3,60.019578387945074,
3,13,Plan a romantic date this weekend,Stimuli/13A1.jpg,Stimuli/13A2.jpg,Stimuli/13A3.jpg,Stimuli/13B1.jpg,Stimuli/13B2.jpg,Stimuli/13B3.jpg,Stimuli/13C1.jpg,Stimuli/13C2.jpg,Stimuli/13C3.jpg,,,,,0,40,40,13,,,,,,,,2389.035807399996,None,2390.0502492000014,None,2396.050231699999,None,"[-0.378, -0.136]","[0.07, 0.393]","[0.304, -0.26]","[-0.377, 0.138]","[0.306, 0.255]","[0.066, -0.395]","[-0.2, 0.346]","[0.399, -0.003]","[-0.203, -0.347]",,20.468311699994956,21.085439199996472,19.75274029999855,"[-0.2675925925925926, -0.32592592592592595, 0.08333333333333333]","[-0.2953703703703704, -0.21203703703703702, -0.45740740740740743]","[1, 1, 1]","[0, 0, 0]","[0, 0, 0]","[19.74333270000352, 20.459583100004238, 21.076193900000362]",0.008311199992022011,21.084472199996526,['A1'],['B3'],['C3'],['yellow'],['salmon'],['blue'],2418.8162009000007,None,8.0,1.6134864999985439,2418.8162009000007,None,2427.515904599997,None,8.0,2.548059099994134,2420.566253799996,None,8.0,2.6478923999966355,2423.2161370999966,None,9.0,4.331721600006858,<function functionImportanceB at 0x00000202815E9EA0>,<function functionImportanceA at 0x00000202815E9AE8>,<function functionImportanceC at 0x00000202815E9378>,,,4.0,4.331721600006858,1.0,2.3312296999938553,5.0,2.764631800004281,<function functiondiffC at 0x0000020281FFE510>,<function functiondiffB at 0x00000202824A5510>,<function functiondiffA at 0x00000202824A5730>,,,,,2397.2560602999947,2435.899126899996,None,2433.1326002999995,None,2430.0493365,None,22,001,2022_Jul_19_1809,2leo,2021.2.3,60.019578387945074,
3,4,Plan a game night at your place,Stimuli/4A1.jpg,Stimuli/4A2.jpg,Stimuli/4A3.jpg,Stimuli/4B1.jpg,Stimuli/4B2.jpg,Stimuli/4B3.jpg,Stimuli/4C1.jpg,Stimuli/4C2.jpg,Stimuli/4C3.jpg,,,,,0,41,41,4,,,,,,,,2437.751221300001,None,2438.7655237,None,2444.765662400001,None,"[0.07, 0.393]","[0.304, -0.26]","[-0.378, -0.136]","[0.306, 0.255]","[0.066, -0.395]","[-0.377, 0.138]","[0.399, -0.003]","[-0.203, -0.347]","[-0.2, 0.346]",,12.645535399926302,5.21268709992728,9.779457399927196,"[0.2351851851851852, -0.17407407407407408, 0.08148148148148149]","[0.225, 0.30462962962962964, 0.39444444444444443]","[1, 1, 1]","[0, 0, 0]","[0, 0, 0]","[5.201562900001591, 9.767896199999086, 12.634696599998279]",0.010423799925774802,12.644853799924022,['A1'],['B1'],['C3'],['blue'],['salmon'],['yellow'],2461.264927199998,None,8.0,2.013394400004472,2461.264927199998,None,2468.631444999999,None,10.0,4.014298399997642,2463.315163399995,None,9.0,3.981519599998137,2472.3504748999985,None,9.0,3.8981892000010703,<function functionImportanceB at 0x00000202824A5AE8>,<function functionImportanceC at 0x0000020281FFE620>,<function functionImportanceA at 0x00000202815E9BF8>,,,1.0,3.8981892000010703,3.0,2.86429859999771,7.0,4.731039400001464,<function functiondiffC at 0x0000020281A3D620>,<function functiondiffA at 0x0000020281FFEBF8>,<function functiondiffB at 0x0000020281FFE400>,,,,,2448.1654561999967,2478.747794899995,None,2481.3145609999992,None,2475.6147083999967,None,22,001,2022_Jul_19_1809,2leo,2021.2.3,60.019578387945074,
3,15,Plan your own Pasta for lunch,Stimuli/15A1.jpg,Stimuli/15A2.jpg,Stimuli/15A3.jpg,Stimuli/15B1.jpg,Stimuli/15B2.jpg,Stimuli/15B3.jpg,Stimuli/15C1.jpg,Stimuli/15C2.jpg,Stimuli/15C3.jpg,,,,,0,42,42,15,,,,,,,,2485.569191099996,None,2486.5808455000006,None,2492.5809635999976,None,"[-0.2, 0.346]","[0.399, -0.003]","[-0.203, -0.347]","[-0.377, 0.138]","[0.306, 0.255]","[0.066, -0.395]","[-0.378, -0.136]","[0.07, 0.393]","[0.304, -0.26]",,11.782541699969443,10.916325099969981,12.3666321999699,"[-0.32407407407407407, -0.20925925925925926, -0.19907407407407407, 0.2722222222222222]","[0.09537037037037037, 0.24074074074074073, 0.2916666666666667, -0.24166666666666667]","[1, 1, 1, 1]","[0, 0, 0, 0]","[0, 0, 0, 0]","[10.904027700002189, 11.387188799999421, 11.770491200004471, 12.353909600002225]",0.011601599973801058,12.365313099973719,['A1'],['B1'],['C3'],['blue'],['yellow'],['salmon'],2507.3137795000002,None,9.0,2.5803850000011153,2507.3137795000002,None,2513.663446599996,None,9.0,2.964952900001663,2515.880290000001,None,10.0,1.598853000003146,2510.063815099995,None,9.0,2.9313156999996863,<function functionImportanceA at 0x00000202824A5BF8>,<function functionImportanceC at 0x00000202825EF378>,<function functionImportanceB at 0x0000020281FFE9D8>,,,7.0,2.9313156999996863,2.0,3.146870900003705,3.0,2.9147503999993205,<function functiondiffA at 0x0000020281FFE950>,<function functiondiffB at 0x0000020281FFEE18>,<function functiondiffC at 0x00000202825EFB70>,,,,,2494.4898168,2517.496880699997,None,2520.6466747000013,None,2523.7301332999996,None,22,001,2022_Jul_19_1809,2leo,2021.2.3,60.019578387945074,
3,43,Plan your dream house,Stimuli/43A1.jpg,Stimuli/43A2.jpg,Stimuli/43A3.jpg,Stimuli/43B1.jpg,Stimuli/43B2.jpg,Stimuli/43B3.jpg,Stimuli/43C1.jpg,Stimuli/43C2.jpg,Stimuli/43C3.jpg,,,,,0,43,43,43,,,,,,,,2526.4825992999977,None,2527.496562799999,None,2533.4965420000008,None,"[0.306, 0.255]","[0.066, -0.395]","[-0.377, 0.138]","[0.07, 0.393]","[0.304, -0.26]","[-0.378, -0.136]","[0.399, -0.003]","[-0.203, -0.347]","[-0.2, 0.346]",,6.476295399996161,9.90990979999333,15.243310899997596,"[0.07777777777777778, 0.32037037037037036, 0.3814814814814815]","[-0.38796296296296295, -0.2601851851851852, -0.046296296296296294]","[1, 1, 1]","[0, 0, 0]","[0, 0, 0]","[6.463512200003606, 9.896818599998369, 15.230070500001602]",0.012278799993509892,15.242146199998388,['A2'],['B2'],['C1'],['salmon'],['yellow'],['blue'],2550.3458325999964,None,9.0,2.230442599997332,2550.3458325999964,None,2558.4457879999973,None,10.0,4.564897900003416,2555.145791099996,None,9.0,3.2652945000008913,2552.6792160999976,None,10.0,2.4977621999933035,<function functionImportanceA at 0x0000020281FFE268>,<function functionImportanceB at 0x00000202825EF730>,<function functionImportanceC at 0x00000202825EF840>,,,2.0,2.4977621999933035,4.0,2.264775499999814,2.0,2.797852399999101,<function functiondiffC at 0x00000202825EF268>,<function functiondiffA at 0x00000202825EF598>,<function functiondiffB at 0x00000202825EF510>,,,,,2534.630020999997,2566.1955501999983,None,2568.4953221999967,None,2562.995517399999,None,22,001,2022_Jul_19_1809,2leo,2021.2.3,60.019578387945074,
3,8,Plan the interior of your living-room ,Stimuli/8A1.jpg,Stimuli/8A2.jpg,Stimuli/8A3.jpg,Stimuli/8B1.jpg,Stimuli/8B2.jpg,Stimuli/8B3.jpg,Stimuli/8C1.jpg,Stimuli/8C2.jpg,Stimuli/8C3.jpg,,,,,0,44,44,8,,,,,,,,2570.814950299995,None,2571.8285896000016,None,2577.8286904999986,None,"[-0.377, 0.138]","[0.306, 0.255]","[0.066, -0.395]","[-0.2, 0.346]","[0.399, -0.003]","[-0.203, -0.347]","[-0.378, -0.136]","[0.07, 0.393]","[0.304, -0.26]",,4.507841699887649,12.908072899881518,10.57508599988796,"[-0.3296296296296296, -0.35555555555555557, -0.22314814814814815]","[0.10185185185185185, -0.13518518518518519, 0.3074074074074074]","[1, 1, 1]","[0, 0, 0]","[0, 0, 0]","[4.497898300003726, 10.56462360000296, 12.89776520000305]",0.009518499886326026,12.907226099887339,['A1'],['B1'],['C1'],['salmon'],['yellow'],['blue'],2595.944471099996,None,9.0,2.1801304000036907,2595.944471099996,None,2605.061016300002,None,10.0,3.2149387000026763,2599.9109840999954,None,9.0,4.947607899994182,2606.394453199995,None,9.0,4.015006100002211,<function functionImportanceB at 0x0000020281FFED90>,<function functionImportanceC at 0x0000020281FFE0D0>,<function functionImportanceA at 0x0000020280D5EBF8>,,,7.0,4.015006100002211,1.0,3.614589500000875,7.0,2.898235900000145,<function functiondiffC at 0x00000202825EFF28>,<function functiondiffB at 0x00000202825EFE18>,<function functiondiffA at 0x00000202825EFD90>,,,,,2582.580088099996,2618.694042299998,None,2616.3107235999996,None,2610.994282300002,None,22,001,2022_Jul_19_1809,2leo,2021.2.3,60.019578387945074,
