Condition,N_Scenario,written_scenario,ImageA1,ImageA2,ImageA3,ImageB1,ImageB2,ImageB3,ImageC1,ImageC2,ImageC3,trials_2.thisRepN,trials_2.thisTrialN,trials_2.thisN,trials_2.thisIndex,trial.thisRepN,trial.thisTrialN,trial.thisN,trial.thisIndex,button_2.started,button_2.stopped,button_2.numClicks,button_2.timesOn,button_2.timesOff,text.started,text.stopped,fixationcross1_started,fixationcross1_stopped,Scenario_started,Scenario_stopped,fixationcross2_started,fixationcross2_stopped,A1pos,A2pos,A3pos,B1pos,B2pos,B3pos,C1pos,C2pos,C3pos,﻿Imagesdecision_started,decisiontimeA,decisiontimeB,decisiontimeC,mouse_x,mouse_y,mouse_leftButton,mouse_midButton,mouse_rightButton,mouse_time,mouse_started,mouse_stopped,clicked_optionA,clicked_optionB,clicked_optionC,colour_category_A,colour_category_B,colour_category_C,question_confidence_started,question_confidence_stopped,slider_confidence_response,slider_confidence_rt,slider_confidence_started,slider_confidence_stopped,question_valueB_started,question_valueB_stopped,slider_valueB_response,slider_valueB_rt,question_valueC_started,question_valueC_stopped,slider_valueC_response,slider_valueC_rt,question_valueA_started,question_valueA_stopped,slider_valueA_response,slider_valueA_rt,Importance_First,Importance_Second,Importance_Third,question_diff_started,question_diff_stopped,slider_diffB_response,slider_diffB_rt,slider_diffA_response,slider_diffA_rt,slider_diffC_response,slider_diffC_rt,diff_First,diff_Second,diff_Third,button_3_started,button_3_stopped,text_2_started,text_2_stopped,Imagesdecision_started,question_diffA_started,question_diffA_stopped,question_diffB_started,question_diffB_stopped,question_diffC_started,question_diffC_stopped,participant,session,date,expName,psychopyVersion,frameRate,
3,2,Plan a party to celebrate your birthday,Stimuli/2A1t.jpg,Stimuli/2A2t.jpg,Stimuli/2A3t.jpg,Stimuli/2B1t.jpg,Stimuli/2B2t.jpg,Stimuli/2B3t.jpg,Stimuli/2C1t.jpg,Stimuli/2C2t.jpg,Stimuli/2C3t.jpg,0,0,0,0,,,,,52.973977299998296,None,1,[6.734380899999451],[6.734384299999874],52.973977299998296,None,107.57799529999829,None,108.57818869999937,None,114.57811479999873,None,"[0.399, -0.003]","[-0.203, -0.347]","[-0.2, 0.346]","[0.306, 0.255]","[0.066, -0.395]","[-0.377, 0.138]","[0.07, 0.393]","[0.304, -0.26]","[-0.378, -0.136]",118.63875919999919,9.40447036002115,13.604686560021946,6.655419260021517,"[0.037037037037037035, -0.13333333333333333, 0.31296296296296294]","[0.35462962962962963, 0.34074074074074073, 0.27037037037037037]","[1, 1, 1]","[0, 0, 0]","[0, 0, 0]","[6.652191900000616, 9.401579800000036, 13.601597400000173]",0.002282360021126806,13.60384186002193,['A3'],['B1'],['C1'],['salmon'],['blue'],['yellow'],132.71051429999898,None,10.0,6.745314100000542,132.71051429999898,None,141.12703269999838,None,5.0,15.897419900000386,155.4601092999983,None,8.0,3.8482772999996087,160.62636609999936,None,7.0,8.831526500000109,<function functionImportanceBt at 0x00000298C06D1D90>,<function functionImportanceCt at 0x00000298B10B1E18>,<function functionImportanceAt at 0x00000298C06D1B70>,176.15960659999837,None,2.0,4.164210400000229,9.0,8.831526500000109,2.0,5.597430199999508,<function functiondiffBt at 0x00000298C1415378>,<function functiondiffAt at 0x00000298C1415C80>,<function functiondiffCt at 0x00000298C1415950>,,,,,,,,,,,,011,001,2022_Jun_15_1246,2leo,2021.2.3,59.968576465983894,
3,3,Plan one week of vacation,Stimuli/3A1t.jpg,Stimuli/3A2t.jpg,Stimuli/3A3t.jpg,Stimuli/3B1t.jpg,Stimuli/3B2t.jpg,Stimuli/3B3t.jpg,Stimuli/3C1t.jpg,Stimuli/3C2t.jpg,Stimuli/3C3t.jpg,0,1,1,1,,,,,,,,,,,,181.27610920000006,None,182.27599659999942,None,188.27601219999997,None,"[-0.203, -0.347]","[0.399, -0.003]","[-0.2, 0.346]","[0.304, -0.26]","[0.07, 0.393]","[-0.378, -0.136]","[0.066, -0.395]","[0.306, 0.255]","[-0.377, 0.138]",194.43894799999907,18.021178880033403,14.921166580033969,8.921837880034218,"[0.09166666666666666, 0.31851851851851853, -0.2]","[-0.33240740740740743, -0.24537037037037038, -0.3]","[1, 1, 1]","[0, 0, 0]","[0, 0, 0]","[8.91873189999933, 14.9183510999992, 18.018629500000316]",0.0021383800340117887,18.02052228003413,['A1'],['B1'],['C1'],['blue'],['yellow'],['salmon'],212.92496649999885,None,9.0,3.1308945000000676,212.92496649999885,None,235.3579622999987,None,8.0,7.914879400001155,217.56182489999992,None,8.0,10.830914899999698,228.87480009999854,None,8.0,6.632170200000473,<function functionImportanceCt at 0x00000298C06D1E18>,<function functionImportanceAt at 0x00000298ADF531E0>,<function functionImportanceBt at 0x00000298C06D1268>,257.1908045,None,3.0,5.614490199999636,2.0,6.632170200000473,4.0,7.031049199998961,<function functiondiffAt at 0x00000298C14156A8>,<function functiondiffCt at 0x00000298C1415730>,<function functiondiffBt at 0x00000298C1415510>,,,,,,,,,,,,011,001,2022_Jun_15_1246,2leo,2021.2.3,59.968576465983894,
3,11,Plan a hike in nature on a free day,Stimuli/11A1.jpg,Stimuli/11A2.jpg,Stimuli/11A3.jpg,Stimuli/11B1.jpg,Stimuli/11B2.jpg,Stimuli/11B3.jpg,Stimuli/11C1.jpg,Stimuli/11C2.jpg,Stimuli/11C3.jpg,,,,,0,0,0,11,,,,,,,,334.36064689999876,None,335.33873329999915,None,341.3385163999992,None,"[0.306, 0.255]","[0.066, -0.395]","[-0.377, 0.138]","[0.399, -0.003]","[-0.203, -0.347]","[-0.2, 0.346]","[0.07, 0.393]","[0.304, -0.26]","[-0.378, -0.136]",,11.851700359999086,14.669186560000526,20.435829059999378,"[0.028703703703703703, -0.23796296296296296, 0.3425925925925926]","[-0.31296296296296294, -0.2953703703703704, -0.24814814814814815]","[1, 1, 1]","[0, 0, 0]","[0, 0, 0]","[11.841994200000045, 14.659237300000314, 20.425649099999646]",0.009189459999106475,20.434531259999858,['A2'],['B2'],['C2'],['yellow'],['blue'],['salmon'],363.4542948999988,None,7.0,5.645879600000626,363.4542948999988,None,369.2210559999985,None,7.0,5.997695400001248,375.22081089999847,None,7.0,5.314898700000413,380.5540278999997,None,6.0,7.5484866999995575,<function functionImportanceB at 0x00000298C06D16A8>,<function functionImportanceC at 0x00000298C1479BF8>,<function functionImportanceA at 0x00000298C1415F28>,,,2.0,2.648299099999349,8.0,4.946922799999811,2.0,7.5484866999995575,<function functiondiffA at 0x00000298C1415AE8>,<function functiondiffB at 0x00000298C14151E0>,<function functiondiffC at 0x00000298C1415598>,261.9238931,None,261.9238931,None,342.545801799999,388.03727959999924,None,393.02043049999884,None,395.68707099999847,None,011,001,2022_Jun_15_1246,2leo,2021.2.3,59.968576465983894,
3,16,Plan a delicious cake for the birthday of a friend,Stimuli/16A1.jpg,Stimuli/16A2.jpg,Stimuli/16A3.jpg,Stimuli/16B1.jpg,Stimuli/16B2.jpg,Stimuli/16B3.jpg,Stimuli/16C1.jpg,Stimuli/16C2.jpg,Stimuli/16C3.jpg,,,,,0,1,1,16,,,,,,,,400.2365665999987,None,401.23672759999863,None,407.2365433999985,None,"[0.066, -0.395]","[0.306, 0.255]","[-0.377, 0.138]","[-0.203, -0.347]","[0.399, -0.003]","[-0.2, 0.346]","[0.304, -0.26]","[0.07, 0.393]","[-0.378, -0.136]",,6.38911986000312,16.705637960003514,12.95622946000367,"[0.3148148148148148, 0.08611111111111111, -0.16296296296296298]","[0.24537037037037038, 0.33796296296296297, -0.262037037037037]","[1, 1, 1]","[0, 0, 0]","[0, 0, 0]","[6.377422400000796, 12.944079599999895, 16.693798700000116]",0.011155460004374618,16.704947460004405,['A2'],['B1'],['C2'],['yellow'],['blue'],['salmon'],425.86929019999843,None,6.0,3.346988799999963,425.86929019999843,None,434.3693199999998,None,6.0,5.581897300000492,439.81910439999956,None,8.0,3.9151058999996167,429.28598579999925,None,8.0,4.847913100000369,<function functionImportanceA at 0x00000298C0591EA0>,<function functionImportanceB at 0x00000298C1479268>,<function functionImportanceC at 0x00000298C1479488>,,,3.0,3.931165800000599,3.0,3.464047900000878,2.0,4.847913100000369,<function functiondiffA at 0x00000298C14799D8>,<function functiondiffB at 0x00000298C1479950>,<function functiondiffC at 0x00000298C1415488>,,,,,408.6914115999989,443.65236659999937,None,447.18554649999896,None,451.10212429999956,None,011,001,2022_Jun_15_1246,2leo,2021.2.3,59.968576465983894,
3,15,Plan your own Pasta for lunch,Stimuli/15A1.jpg,Stimuli/15A2.jpg,Stimuli/15A3.jpg,Stimuli/15B1.jpg,Stimuli/15B2.jpg,Stimuli/15B3.jpg,Stimuli/15C1.jpg,Stimuli/15C2.jpg,Stimuli/15C3.jpg,,,,,0,2,2,15,,,,,,,,458.1892842999987,None,459.1684723999988,None,465.1685351999986,None,"[0.304, -0.26]","[0.07, 0.393]","[-0.378, -0.136]","[0.066, -0.395]","[0.306, 0.255]","[-0.377, 0.138]","[-0.203, -0.347]","[0.399, -0.003]","[-0.2, 0.346]",,21.711838880008145,17.144045580007514,8.99466578000829,"[-0.1685185185185185, 0.012962962962962963, 0.26851851851851855]","[0.3194444444444444, -0.3314814814814815, -0.2]","[1, 1, 1]","[0, 0, 0]","[0, 0, 0]","[8.979867799998829, 17.12973509999938, 21.69780079999873]",0.013636880008562002,21.709912980008085,['A1'],['B1'],['C3'],['yellow'],['blue'],['salmon'],489.33401069999854,None,5.0,2.2787401000005048,489.33401069999854,None,494.8342496999994,None,8.0,3.681697099998928,499.26940659999855,None,9.0,5.715707499999553,491.73404089999894,None,8.0,3.1645286999992095,<function functionImportanceA at 0x00000298C1415620>,<function functionImportanceB at 0x00000298C1479598>,<function functionImportanceC at 0x00000298B5D00E18>,,,6.0,3.5978687000006175,4.0,3.6309676000000763,9.0,3.1645286999992095,<function functiondiffB at 0x00000298C1479D90>,<function functiondiffA at 0x00000298C1479C80>,<function functiondiffC at 0x00000298C14150D0>,,,,,467.1519669999998,507.88368759999867,None,504.25071109999953,None,511.6838294999998,None,011,001,2022_Jun_15_1246,2leo,2021.2.3,59.968576465983894,
3,23,Plan a city trip,Stimuli/23A1.jpg,Stimuli/23A2.jpg,Stimuli/23A3.jpg,Stimuli/23B1.jpg,Stimuli/23B2.jpg,Stimuli/23B3.jpg,Stimuli/23C1.jpg,Stimuli/23C2.jpg,Stimuli/23C3.jpg,,,,,0,3,3,23,,,,,,,,514.1834829,None,515.1836242999998,None,521.1835825999988,None,"[-0.203, -0.347]","[-0.2, 0.346]","[0.399, -0.003]","[0.066, -0.395]","[-0.377, 0.138]","[0.306, 0.255]","[0.304, -0.26]","[-0.378, -0.136]","[0.07, 0.393]",,10.942980040001203,14.276159140001255,19.593267740001465,"[0.42407407407407405, -0.425, -0.3685185185185185]","[0.001851851851851852, 0.12407407407407407, -0.13333333333333333]","[1, 1, 1]","[0, 0, 0]","[0, 0, 0]","[10.929311300000336, 14.262342899999567, 19.579220300000088]",0.013062240001090686,19.591919040001812,['A3'],['B2'],['C2'],['blue'],['salmon'],['yellow'],542.4326790999985,None,8.0,2.646989000000758,542.4326790999985,None,545.1494067999993,None,10.0,2.9145548999986204,551.7493299999987,None,7.0,2.99832669999887,548.0660515,None,8.0,3.614845100000821,<function functionImportanceB at 0x00000298C1415A60>,<function functionImportanceA at 0x00000298C1479840>,<function functionImportanceC at 0x00000298C1415158>,,,-0.0,2.4977734000003693,3.0,2.7144879000006767,5.0,3.614845100000821,<function functiondiffA at 0x00000298C1479378>,<function functiondiffB at 0x00000298C1479A60>,<function functiondiffC at 0x00000298C1479620>,,,,,522.3693034999997,554.6992367999992,None,557.4325247999986,None,559.9492209,None,011,001,2022_Jun_15_1246,2leo,2021.2.3,59.968576465983894,
3,32,Plan how you want to relax after a workday,Stimuli/32A1.jpg,Stimuli/32A2.jpg,Stimuli/32A3.jpg,Stimuli/32B1.jpg,Stimuli/32B2.jpg,Stimuli/32B3.jpg,Stimuli/32C1.jpg,Stimuli/32C2.jpg,Stimuli/32C3.jpg,,,,,0,4,4,32,,,,,,,,563.7321194999986,None,564.7324619999999,None,570.7323974999999,None,"[0.07, 0.393]","[0.304, -0.26]","[-0.378, -0.136]","[0.306, 0.255]","[0.066, -0.395]","[-0.377, 0.138]","[0.399, -0.003]","[-0.203, -0.347]","[-0.2, 0.346]",,18.61794876001295,13.218525660013256,4.85217416001251,"[-0.15462962962962962, 0.3425925925925926, 0.3138888888888889]","[0.28425925925925927, 0.2212962962962963, -0.2657407407407407]","[1, 1, 1]","[0, 0, 0]","[0, 0, 0]","[4.850511900000129, 13.21712800000023, 18.61688420000064]",0.0005634600129269529,18.61729616001321,['A2'],['B1'],['C3'],['yellow'],['salmon'],['blue'],592.8812197999996,None,6.0,2.680087500000809,592.8812197999996,None,596.4181701999987,None,5.0,3.9809373000007326,606.597897399999,None,8.0,3.4153684999982943,600.7344446999996,None,7.0,6.948520500000086,<function functionImportanceB at 0x000002988128B400>,<function functionImportanceA at 0x00000298C14158C8>,<function functionImportanceC at 0x000002988128B158>,,,8.0,4.064702699999543,7.0,4.447562099998322,5.0,6.948520500000086,<function functiondiffA at 0x00000298C14797B8>,<function functiondiffC at 0x000002988128B840>,<function functiondiffB at 0x00000298C1479B70>,,,,,573.7989365999983,610.3476447999983,None,616.8472836000001,None,614.4643594999998,None,011,001,2022_Jun_15_1246,2leo,2021.2.3,59.968576465983894,
3,28,Plan a one-week camping trip in Spain,Stimuli/28A1.jpg,Stimuli/28A2.jpg,Stimuli/28A3.jpg,Stimuli/28B1.jpg,Stimuli/28B2.jpg,Stimuli/28B3.jpg,Stimuli/28C1.jpg,Stimuli/28C2.jpg,Stimuli/28C3.jpg,,,,,0,5,5,28,,,,,,,,620.2473086999998,None,621.2473471999983,None,627.247541499999,None,"[0.399, -0.003]","[-0.203, -0.347]","[-0.2, 0.346]","[0.07, 0.393]","[0.304, -0.26]","[-0.378, -0.136]","[0.306, 0.255]","[0.066, -0.395]","[-0.377, 0.138]",,11.211344220000683,17.327902720000566,6.528848320000179,"[-0.3453703703703704, 0.44537037037037036, 0.12037037037037036]","[0.12314814814814815, 0.023148148148148147, 0.387037037037037]","[1, 1, 1]","[0, 0, 0]","[0, 0, 0]","[6.513833999999406, 11.197051799999826, 17.313323899999887]",0.013889519999793265,17.327131420001024,['A1'],['B1'],['C3'],['yellow'],['salmon'],['blue'],646.2132459999993,None,5.0,1.9800479999994423,646.2132459999993,None,651.8801038999991,None,6.0,4.331663700000718,648.246817199999,None,5.0,3.5808966000004148,656.2465493,None,6.0,4.231588299999203,<function functionImportanceC at 0x000002988128BA60>,<function functionImportanceB at 0x000002988128BAE8>,<function functionImportanceA at 0x000002988128B0D0>,,,4.0,7.064203400001134,4.0,5.231516699999702,4.0,4.231588299999203,<function functiondiffC at 0x00000298C1479EA0>,<function functiondiffA at 0x00000298C1479F28>,<function functiondiffB at 0x00000298C1479E18>,,,,,628.4140941999995,664.7463715999984,None,669.996185,None,660.429591099999,None,011,001,2022_Jun_15_1246,2leo,2021.2.3,59.968576465983894,
3,12,Plan the ingredients to mix yourself a cocktail,Stimuli/12A1.jpg,Stimuli/12A2.jpg,Stimuli/12A3.jpg,Stimuli/12B1.jpg,Stimuli/12B2.jpg,Stimuli/12B3.jpg,Stimuli/12C1.jpg,Stimuli/12C2.jpg,Stimuli/12C3.jpg,,,,,0,6,6,12,,,,,,,,676.5790810999988,None,677.5790784000001,None,683.5790300999997,None,"[0.399, -0.003]","[-0.203, -0.347]","[-0.2, 0.346]","[0.07, 0.393]","[0.304, -0.26]","[-0.378, -0.136]","[0.306, 0.255]","[0.066, -0.395]","[-0.377, 0.138]",,9.630043120001574,11.296883720000551,28.379600920001394,"[0.4101851851851852, 0.3175925925925926, -0.2, 0.018518518518518517, 0.3296296296296296]","[-0.001851851851851852, -0.18611111111111112, 0.31666666666666665, 0.412962962962963, 0.2212962962962963]","[1, 1, 1, 1, 1]","[0, 0, 0, 0, 0]","[0, 0, 0, 0, 0]","[9.62298920000103, 11.28948500000115, 18.0226728000016, 23.305901300000187, 28.372040800000832]",0.0066221200013387715,28.378658820001874,['A1'],['B2'],['C1'],['salmon'],['blue'],['yellow'],713.6113810999996,None,8.0,2.5970970999987912,713.6113810999996,None,720.1613733999984,None,7.0,2.981598100001065,716.2783175999994,None,8.0,3.864656300000206,723.1778994999986,None,9.0,5.1815942000012,<function functionImportanceC at 0x000002988128B510>,<function functionImportanceB at 0x000002988128B048>,<function functionImportanceA at 0x000002988128B598>,,,3.0,3.2812878000004275,2.0,8.164561899999171,2.0,5.1815942000012,<function functiondiffB at 0x000002988128BB70>,<function functiondiffC at 0x000002988128BC80>,<function functiondiffA at 0x000002988128B268>,,,,,684.7527500999986,734.9111256999986,None,728.3279377999988,None,731.6277729999983,None,011,001,2022_Jun_15_1246,2leo,2021.2.3,59.968576465983894,
3,33,Plan the items to decorate your Christmas tree,Stimuli/33A1.jpg,Stimuli/33A2.jpg,Stimuli/33A3.jpg,Stimuli/33B1.jpg,Stimuli/33B2.jpg,Stimuli/33B3.jpg,Stimuli/33C1.jpg,Stimuli/33C2.jpg,Stimuli/33C3.jpg,,,,,0,7,7,33,,,,,,,,742.5938987999998,None,743.5940487999997,None,749.5940649999993,None,"[-0.203, -0.347]","[-0.2, 0.346]","[0.399, -0.003]","[0.066, -0.395]","[-0.377, 0.138]","[0.306, 0.255]","[0.304, -0.26]","[-0.378, -0.136]","[0.07, 0.393]",,10.054485160006152,30.437274860005346,17.90652866000528,"[-0.1935185185185185, -0.33425925925925926, -0.43333333333333335]","[0.38425925925925924, -0.1287037037037037, 0.13518518518518519]","[1, 1, 1]","[0, 0, 0]","[0, 0, 0]","[10.043439499999295, 17.894934599999033, 30.42594409999947]",0.010547160005444312,30.43647926000449,['A2'],['B2'],['C2'],['yellow'],['salmon'],['blue'],782.2093801999999,None,5.0,2.080186799999865,782.2093801999999,None,784.3430993999991,None,2.0,3.6645662000009906,788.0596379999988,None,7.0,8.265052300001116,796.8428102999987,None,4.0,3.3152938000002905,<function functionImportanceB at 0x000002988128B1E0>,<function functionImportanceC at 0x000002988128B730>,<function functionImportanceA at 0x000002988128BEA0>,,,10.0,4.247312800000145,6.0,2.464445599998726,8.0,3.3152938000002905,<function functiondiffC at 0x000002988128B620>,<function functiondiffB at 0x000002988128B2F0>,<function functiondiffA at 0x000002988128BE18>,,,,,751.3116604999996,809.3256502999993,None,804.9257576,None,799.6258091999989,None,011,001,2022_Jun_15_1246,2leo,2021.2.3,59.968576465983894,
3,43,Plan your dream house,Stimuli/43A1.jpg,Stimuli/43A2.jpg,Stimuli/43A3.jpg,Stimuli/43B1.jpg,Stimuli/43B2.jpg,Stimuli/43B3.jpg,Stimuli/43C1.jpg,Stimuli/43C2.jpg,Stimuli/43C3.jpg,,,,,0,8,8,43,,,,,,,,811.1754352999997,None,812.1755571999984,None,818.175562299999,None,"[-0.203, -0.347]","[-0.2, 0.346]","[0.399, -0.003]","[0.304, -0.26]","[-0.378, -0.136]","[0.07, 0.393]","[0.066, -0.395]","[-0.377, 0.138]","[0.306, 0.255]",,10.247019239999645,4.69754513999942,24.16416474000107,"[0.09537037037037037, 0.4203703703703704, 0.27870370370370373]","[0.4222222222222222, 0.012962962962962963, 0.26944444444444443]","[1, 1, 1]","[0, 0, 0]","[0, 0, 0]","[4.681493600000977, 10.231200800000806, 24.147790500001065]",0.01519034000011743,24.16273134000039,['A3'],['B3'],['C3'],['blue'],['yellow'],['salmon'],843.9911230999987,None,5.0,1.863795500001288,843.9911230999987,None,845.9080264999993,None,9.0,3.564497499999561,853.7243064999984,None,8.0,2.8650637999999162,849.5413262999991,None,7.0,4.214977100000397,<function functionImportanceB at 0x00000298C14159D8>,<function functionImportanceA at 0x00000298BE2779D8>,<function functionImportanceC at 0x000002988128B8C8>,,,0.0,2.5313014000003022,5.0,2.2480126000009477,10.0,4.214977100000397,<function functiondiffC at 0x00000298C1479AE8>,<function functiondiffA at 0x000002988128B6A8>,<function functiondiffB at 0x000002988128BF28>,,,,,819.3581776999999,859.1243893999999,None,861.3908610999988,None,856.5911264999995,None,011,001,2022_Jun_15_1246,2leo,2021.2.3,59.968576465983894,
3,41,Plan how you want to have dinner tonight ,Stimuli/41A1.jpg,Stimuli/41A2.jpg,Stimuli/41A3.jpg,Stimuli/41B1.jpg,Stimuli/41B2.jpg,Stimuli/41B3.jpg,Stimuli/41C1.jpg,Stimuli/41C2.jpg,Stimuli/41C3.jpg,,,,,0,9,9,41,,,,,,,,863.4406884999989,None,864.4408906999997,None,870.4408174,None,"[0.066, -0.395]","[0.306, 0.255]","[-0.377, 0.138]","[0.304, -0.26]","[0.07, 0.393]","[-0.378, -0.136]","[-0.203, -0.347]","[0.399, -0.003]","[-0.2, 0.346]",,3.9594492400010495,14.22603664000053,10.543392640000093,"[0.09074074074074075, -0.16203703703703703, 0.32037037037037036]","[-0.4009259259259259, 0.29259259259259257, -0.2537037037037037]","[1, 1, 1]","[0, 0, 0]","[0, 0, 0]","[3.9542739000007714, 10.537548700000116, 14.220558299999539]",0.004772340000272379,14.22531674000129,['A1'],['B1'],['C3'],['salmon'],['yellow'],['blue'],886.5066797,None,8.0,1.9970200000007026,886.5066797,None,892.823463499999,None,9.0,4.198414299999058,897.2065900999987,None,7.0,2.448803499999485,888.6065813999994,None,9.0,4.2310826999982964,<function functionImportanceA at 0x00000298C1415EA0>,<function functionImportanceB at 0x00000298C1479D08>,<function functionImportanceC at 0x00000298C14796A8>,,,1.0,3.9468661999999313,0.0,2.3489474000016344,3.0,4.2310826999982964,<function functiondiffB at 0x000002988128B378>,<function functiondiffC at 0x0000029880544730>,<function functiondiffA at 0x000002988128B950>,,,,,871.8018635999997,906.0231390999998,None,899.4564627,None,903.4729357999986,None,011,001,2022_Jun_15_1246,2leo,2021.2.3,59.968576465983894,
3,22,Plan a beach day with your friends,Stimuli/22A1.jpg,Stimuli/22A2.jpg,Stimuli/22A3.jpg,Stimuli/22B1.jpg,Stimuli/22B2.jpg,Stimuli/22B3.jpg,Stimuli/22C1.jpg,Stimuli/22C2.jpg,Stimuli/22C3.jpg,,,,,0,10,10,22,,,,,,,,907.8894870999993,None,908.8895809999995,None,914.8896660999999,None,"[-0.2, 0.346]","[-0.203, -0.347]","[0.399, -0.003]","[-0.378, -0.136]","[0.304, -0.26]","[0.07, 0.393]","[-0.377, 0.138]","[0.066, -0.395]","[0.306, 0.255]",,14.903409520000423,4.8872011200001,11.27060752000034,"[0.058333333333333334, -0.34629629629629627, 0.3861111111111111]","[0.39351851851851855, 0.12777777777777777, 0.012037037037037037]","[1, 1, 1]","[0, 0, 0]","[0, 0, 0]","[4.87630370000079, 11.259720100000777, 14.892891200001031]",0.009883120001177303,14.902432920000138,['A3'],['B3'],['C1'],['yellow'],['blue'],['salmon'],931.4388131999985,None,7.0,2.079664499999126,931.4388131999985,None,943.0719341999993,None,9.0,2.6147251999991568,933.6067150999988,None,3.0,3.5974450999983674,937.2054458999992,None,8.0,5.865342700000838,<function functionImportanceC at 0x0000029880544048>,<function functionImportanceA at 0x00000298C1479400>,<function functionImportanceB at 0x00000298805441E0>,,,4.0,2.714523000000554,3.0,4.014028199999302,2.0,5.865342700000838,<function functiondiffA at 0x000002988128BBF8>,<function functiondiffB at 0x000002988128B9D8>,<function functiondiffC at 0x0000029880544B70>,,,,,916.0606703999983,945.6720083,None,949.7218700999983,None,952.4548832,None,011,001,2022_Jun_15_1246,2leo,2021.2.3,59.968576465983894,
3,7,Plan your Sunday breakfast ,Stimuli/7A1.jpg,Stimuli/7A2.jpg,Stimuli/7A3.jpg,Stimuli/7B1.jpg,Stimuli/7B2.jpg,Stimuli/7B3.jpg,Stimuli/7C1.jpg,Stimuli/7C2.jpg,Stimuli/7C3.jpg,,,,,0,11,11,7,,,,,,,,954.9548939999986,None,955.955093999999,None,961.9549161999985,None,"[-0.377, 0.138]","[0.066, -0.395]","[0.306, 0.255]","[-0.378, -0.136]","[0.304, -0.26]","[0.07, 0.393]","[-0.2, 0.346]","[-0.203, -0.347]","[0.399, -0.003]",,8.891380940032832,7.943502940031976,4.741903340031058,"[0.38796296296296295, -0.30925925925925923, 0.34814814814814815]","[0.009259259259259259, -0.08055555555555556, 0.2324074074074074]","[1, 1, 1]","[0, 0, 0]","[0, 0, 0]","[4.728712400001314, 7.930754500001058, 8.878701800000272]",0.012056440031301463,8.890699040031905,['A3'],['B1'],['C3'],['salmon'],['blue'],['yellow'],977.3376720999986,None,9.0,1.8300050999987434,977.3376720999986,None,985.7709469999991,None,9.0,4.431652600000234,980.4543439999998,None,8.0,4.647743300000002,990.1541737999996,None,9.0,4.698280799999338,<function functionImportanceC at 0x0000029880544D90>,<function functionImportanceB at 0x0000029880544268>,<function functionImportanceA at 0x0000029880544D08>,,,0.0,4.647792600000685,-0.0,3.0975788999985525,1.0,4.698280799999338,<function functiondiffA at 0x0000029880544488>,<function functiondiffC at 0x0000029880544C80>,<function functiondiffB at 0x0000029880544158>,,,,,967.9932712999998,993.5706630999994,None,999.7371601999985,None,996.5205995999986,None,011,001,2022_Jun_15_1246,2leo,2021.2.3,59.968576465983894,
3,26,Plan how to wash one round of your laundry ,Stimuli/26A1.jpg,Stimuli/26A2.jpg,Stimuli/26A3.jpg,Stimuli/26B1.jpg,Stimuli/26B2.jpg,Stimuli/26B3.jpg,Stimuli/26C1.jpg,Stimuli/26C2.jpg,Stimuli/26C3.jpg,,,,,0,12,12,26,,,,,,,,1003.2368914999988,None,1004.2370077999985,None,1010.2369757999986,None,"[0.066, -0.395]","[-0.377, 0.138]","[0.306, 0.255]","[-0.203, -0.347]","[-0.2, 0.346]","[0.399, -0.003]","[0.304, -0.26]","[-0.378, -0.136]","[0.07, 0.393]",,17.42327772000135,10.15700102000119,12.940705420001905,"[-0.16944444444444445, 0.03425925925925926, -0.4046296296296296]","[0.3194444444444444, 0.41388888888888886, 0.12129629629629629]","[1, 1, 1]","[0, 0, 0]","[0, 0, 0]","[10.152823300000819, 12.936229599999933, 17.419362299999193]",0.003414920001887367,17.422572520001268,['A2'],['B2'],['C3'],['yellow'],['blue'],['salmon'],1029.319608599999,None,7.0,2.1811266000004252,1029.319608599999,None,1039.5359624999983,None,8.0,6.731512399999701,1035.5028757,None,5.0,3.981795300000158,1031.603009999999,None,1.0,3.881015599999955,<function functionImportanceA at 0x0000029880544510>,<function functionImportanceC at 0x00000298805446A8>,<function functionImportanceB at 0x0000029880544598>,,,7.0,2.28139740000006,0.0,3.246912799999336,2.0,3.881015599999955,<function functiondiffC at 0x0000029880544A60>,<function functiondiffA at 0x000002988128BD90>,<function functiondiffB at 0x000002988128B7B8>,,,,,1011.4164648999995,1050.1689635999992,None,1053.435652799999,None,1046.1859368999994,None,011,001,2022_Jun_15_1246,2leo,2021.2.3,59.968576465983894,
3,8,Plan the interior of your living-room ,Stimuli/8A1.jpg,Stimuli/8A2.jpg,Stimuli/8A3.jpg,Stimuli/8B1.jpg,Stimuli/8B2.jpg,Stimuli/8B3.jpg,Stimuli/8C1.jpg,Stimuli/8C2.jpg,Stimuli/8C3.jpg,,,,,0,13,13,8,,,,,,,,1055.2355967999993,None,1056.2355862999993,None,1062.2356922,None,"[0.304, -0.26]","[-0.378, -0.136]","[0.07, 0.393]","[0.066, -0.395]","[-0.377, 0.138]","[0.306, 0.255]","[-0.203, -0.347]","[-0.2, 0.346]","[0.399, -0.003]",,16.6337778000252,11.917595300024914,6.034846300024583,"[0.3731481481481482, 0.2824074074074074, 0.3]","[0.012037037037037037, 0.21296296296296297, -0.23796296296296296]","[1, 1, 1]","[0, 0, 0]","[0, 0, 0]","[6.025206399999661, 11.908219499999177, 16.624843199999304]",0.008530300025086035,16.633071600024778,['A1'],['B3'],['C3'],['salmon'],['yellow'],['blue'],1084.168009699999,None,8.0,1.5631474999991042,1084.168009699999,None,1096.302858699999,None,7.0,4.36546719999933,1087.717858,None,10.0,5.4478909999997995,1091.2679745999994,None,10.0,3.2655935999991925,<function functionImportanceC at 0x00000298C1479510>,<function functionImportanceA at 0x0000029880544400>,<function functionImportanceB at 0x0000029880544620>,,,3.0,3.2148239000016474,7.0,4.21444099999826,2.0,3.2655935999991925,<function functiondiffC at 0x0000029880544F28>,<function functiondiffB at 0x00000298805440D0>,<function functiondiffA at 0x00000298805449D8>,,,,,1067.0773248999994,1106.5009911999987,None,1103.8176741999996,None,1099.5178554999984,None,011,001,2022_Jun_15_1246,2leo,2021.2.3,59.968576465983894,
3,44,Plan a party at your place,Stimuli/44A1.jpg,Stimuli/44A2.jpg,Stimuli/44A3.jpg,Stimuli/44B1.jpg,Stimuli/44B2.jpg,Stimuli/44B3.jpg,Stimuli/44C1.jpg,Stimuli/44C2.jpg,Stimuli/44C3.jpg,,,,,0,14,14,44,,,,,,,,1110.2340792999985,None,1111.2339991999997,None,1117.2338445999994,None,"[-0.378, -0.136]","[0.304, -0.26]","[0.07, 0.393]","[-0.377, 0.138]","[0.066, -0.395]","[0.306, 0.255]","[-0.2, 0.346]","[-0.203, -0.347]","[0.399, -0.003]",,15.157330540001567,8.074247440001272,17.0245272400025,"[0.33055555555555555, 0.011111111111111112, -0.14814814814814814]","[0.28055555555555556, 0.36203703703703705, -0.3148148148148148]","[1, 1, 1]","[0, 0, 0]","[0, 0, 0]","[8.061483699999371, 15.144840400000248, 17.011628599999312]",0.011891040001501096,17.023278940001546,['A3'],['B3'],['C2'],['blue'],['yellow'],['salmon'],1135.916453599999,None,5.0,1.9298442999988765,1135.916453599999,None,1143.3998190999991,None,8.0,2.9481937999989896,1137.9833209999997,None,8.0,2.947762199999488,1140.8665124,None,5.0,2.448193899999751,<function functionImportanceC at 0x0000029880A9F598>,<function functionImportanceA at 0x00000298C1479158>,<function functionImportanceB at 0x00000298C14798C8>,,,10.0,3.2646211000010226,10.0,2.2816337999993266,1.0,2.448193899999751,<function functiondiffC at 0x00000298805448C8>,<function functiondiffB at 0x0000029880544E18>,<function functiondiffA at 0x0000029880544950>,,,,,1118.4207061999987,1152.1329501,None,1148.8497877999998,None,1146.2833304999986,None,011,001,2022_Jun_15_1246,2leo,2021.2.3,59.968576465983894,
3,13,Plan a romantic date this weekend,Stimuli/13A1.jpg,Stimuli/13A2.jpg,Stimuli/13A3.jpg,Stimuli/13B1.jpg,Stimuli/13B2.jpg,Stimuli/13B3.jpg,Stimuli/13C1.jpg,Stimuli/13C2.jpg,Stimuli/13C3.jpg,,,,,0,15,15,13,,,,,,,,1184.3656893999996,None,1185.3656004999993,None,1191.3654483999999,None,"[-0.377, 0.138]","[0.306, 0.255]","[0.066, -0.395]","[-0.378, -0.136]","[0.07, 0.393]","[0.304, -0.26]","[-0.2, 0.346]","[0.399, -0.003]","[-0.203, -0.347]",,5.064142280001761,17.480618080002387,21.851171180001984,"[0.3074074074074074, 0.3138888888888889, 0.45]","[0.22962962962962963, -0.21851851851851853, -0.014814814814814815]","[1, 1, 1]","[0, 0, 0]","[0, 0, 0]","[5.05651079999916, 17.472797899999932, 21.840767499999856]",0.006933480000952841,21.84673648000171,['A2'],['B3'],['C2'],['salmon'],['blue'],['yellow'],1214.9478985999995,None,7.0,2.042839699999604,1214.9478985999995,None,1220.0645142999983,None,2.0,4.281863599999269,1224.3144439999996,None,7.0,3.081859899999472,1217.0480458999991,None,10.0,2.9481285000001662,<function functionImportanceA at 0x0000029880544BF8>,<function functionImportanceB at 0x0000029880A9F730>,<function functionImportanceC at 0x0000029880A9F840>,,,5.0,2.564607000000251,0.0,2.6976482999998552,8.0,2.9481285000001662,<function functiondiffA at 0x0000029880A9F048>,<function functiondiffB at 0x0000029880A9F950>,<function functiondiffC at 0x0000029880A9F9D8>,,,,,1192.5910024999994,1227.3810678999998,None,1230.1143573999998,None,1232.6807948999995,None,011,001,2022_Jun_15_1246,2leo,2021.2.3,59.968576465983894,
3,30,Plan your sport work out for tomorrow,Stimuli/30A1.jpg,Stimuli/30A2.jpg,Stimuli/30A3.jpg,Stimuli/30B1.jpg,Stimuli/30B2.jpg,Stimuli/30B3.jpg,Stimuli/30C1.jpg,Stimuli/30C2.jpg,Stimuli/30C3.jpg,,,,,0,16,16,30,,,,,,,,1235.0805748999992,None,1236.0808296999985,None,1242.0807181,None,"[-0.377, 0.138]","[0.306, 0.255]","[0.066, -0.395]","[-0.378, -0.136]","[0.07, 0.393]","[0.304, -0.26]","[-0.2, 0.346]","[0.399, -0.003]","[-0.203, -0.347]",,14.59744504000082,16.995251440001084,10.312135340001987,"[0.3453703703703704, 0.1111111111111111, -0.4388888888888889]","[0.030555555555555555, -0.32592592592592595, -0.08518518518518518]","[1, 1, 1]","[0, 0, 0]","[0, 0, 0]","[10.296973000000435, 14.581656199999998, 16.98045700000148]",0.014123940001809387,16.994211140001426,['A3'],['B1'],['C2'],['yellow'],['salmon'],['blue'],1260.7298352999987,None,8.0,2.0804769999995187,1260.7298352999987,None,1265.6800233999984,None,5.0,2.6819974000009097,1268.3299443999986,None,8.0,2.331902699999773,1262.8633627,None,10.0,2.731097599998975,<function functionImportanceA at 0x0000029880544AE8>,<function functionImportanceB at 0x0000029880544EA0>,<function functionImportanceC at 0x000002988128BD08>,,,3.0,4.247791100000541,-0.0,3.3143733000015345,5.0,2.731097599998975,<function functiondiffB at 0x0000029880A9FD90>,<function functiondiffA at 0x0000029880544378>,<function functiondiffC at 0x0000029880A9FE18>,,,,,1243.2646621999993,1274.9130631999997,None,1270.6632971,None,1278.246326999999,None,011,001,2022_Jun_15_1246,2leo,2021.2.3,59.968576465983894,
3,5,Plan a birthday party for your younger self when you turn eight,Stimuli/5A1.jpg,Stimuli/5A2.jpg,Stimuli/5A3.jpg,Stimuli/5B1.jpg,Stimuli/5B2.jpg,Stimuli/5B3.jpg,Stimuli/5C1.jpg,Stimuli/5C2.jpg,Stimuli/5C3.jpg,,,,,0,17,17,5,,,,,,,,1282.5292500999985,None,1283.5293513999986,None,1289.5293839999995,None,"[-0.377, 0.138]","[0.066, -0.395]","[0.306, 0.255]","[-0.378, -0.136]","[0.304, -0.26]","[0.07, 0.393]","[-0.2, 0.346]","[-0.203, -0.347]","[0.399, -0.003]",,23.73109070003011,12.131720800029143,9.898350200030109,"[-0.1712962962962963, 0.30092592592592593, 0.262037037037037]","[0.29444444444444445, -0.225, 0.28888888888888886]","[1, 1, 1]","[0, 0, 0]","[0, 0, 0]","[9.890231299999868, 12.123758600000656, 23.723296399999526]",0.0071878000289871125,23.730403200030196,['A3'],['B2'],['C1'],['salmon'],['blue'],['yellow'],1319.5616341999994,None,5.0,2.264462699999058,1319.5616341999994,None,1328.9615848999983,None,7.0,4.848628899999312,1332.9945149999985,None,9.0,3.5484558999996807,1324.4950546,None,3.0,5.563371500000358,<function functionImportanceA at 0x00000298805442F0>,<function functionImportanceB at 0x0000029880544840>,<function functionImportanceC at 0x0000029880A9F0D0>,,,1.0,3.6143405999991955,8.0,3.7312065999994957,9.0,5.563371500000358,<function functiondiffB at 0x0000029880A9FB70>,<function functiondiffC at 0x0000029880A9FC80>,<function functiondiffA at 0x0000029880A9F400>,,,,,1295.3732862999987,1342.8115684999993,None,1336.2446968999993,None,1339.6280477,None,011,001,2022_Jun_15_1246,2leo,2021.2.3,59.968576465983894,
3,27,Plan what festival to visit with your friends,Stimuli/27A1.jpg,Stimuli/27A2.jpg,Stimuli/27A3.jpg,Stimuli/27B1.jpg,Stimuli/27B2.jpg,Stimuli/27B3.jpg,Stimuli/27C1.jpg,Stimuli/27C2.jpg,Stimuli/27C3.jpg,,,,,0,18,18,27,,,,,,,,1345.2775831,None,1346.2777852,None,1352.2776568999998,None,"[-0.377, 0.138]","[0.306, 0.255]","[0.066, -0.395]","[-0.378, -0.136]","[0.07, 0.393]","[0.304, -0.26]","[-0.2, 0.346]","[0.399, -0.003]","[-0.203, -0.347]",,27.366670220000742,10.00066132000211,6.101068420000956,"[-0.14166666666666666, 0.26481481481481484, 0.3287037037037037]","[0.37407407407407406, -0.225, 0.20277777777777778]","[1, 1, 1]","[0, 0, 0]","[0, 0, 0]","[6.0998859999999695, 9.999662199999875, 27.366022299998804]",0.00011452000217104796,27.365806120002162,['A2'],['B3'],['C1'],['salmon'],['blue'],['yellow'],1381.3097308999986,None,5.0,2.1131287000007433,1381.3097308999986,None,1389.2599083999994,None,7.0,2.4152462000001833,1386.2934288999986,None,1.0,2.9320453999989695,1383.5434213999997,None,10.0,2.7641921999984334,<function functionImportanceA at 0x0000029880A9F510>,<function functionImportanceC at 0x0000029880F7C598>,<function functionImportanceB at 0x00000298805447B8>,,,5.0,2.64797980000003,10.0,2.2647720999993908,2.0,2.7641921999984334,<function functiondiffC at 0x0000029880A9F7B8>,<function functiondiffA at 0x0000029880A9FEA0>,<function functiondiffB at 0x0000029880A9FD08>,,,,,1353.4605620999992,1395.793056299999,None,1398.0763450999984,None,1391.6265322,None,011,001,2022_Jun_15_1246,2leo,2021.2.3,59.968576465983894,
3,0,Plan a barbecue,Stimuli/0A1.jpg,Stimuli/0A2.jpg,Stimuli/0A3.jpg,Stimuli/0B1.jpg,Stimuli/0B2.jpg,Stimuli/0B3.jpg,Stimuli/0C1.jpg,Stimuli/0C2.jpg,Stimuli/0C3.jpg,,,,,0,19,19,0,,,,,,,,1400.242773,None,1401.2429013,None,1407.2429069999998,None,"[0.306, 0.255]","[0.066, -0.395]","[-0.377, 0.138]","[0.399, -0.003]","[-0.203, -0.347]","[-0.2, 0.346]","[0.07, 0.393]","[0.304, -0.26]","[-0.378, -0.136]",,5.90594898001109,8.889301880009953,16.689051880010084,"[-0.3277777777777778, 0.4, 0.3074074074074074]","[0.14444444444444443, -0.044444444444444446, -0.23703703703703705]","[1, 1, 1]","[0, 0, 0]","[0, 0, 0]","[5.902713800000129, 8.885970600000292, 16.68537230000038]",0.0026471800101717236,16.687900580011046,['A3'],['B1'],['C2'],['salmon'],['yellow'],['blue'],1426.8919891999994,None,8.0,1.7806801999995514,1426.8919891999994,None,1437.2249703999987,None,8.0,2.3651097000001755,1432.5252647999987,None,5.0,4.681766100000459,1430.0616974999994,None,10.0,3.7647326000005705,<function functionImportanceA at 0x0000029880F7C2F0>,<function functionImportanceC at 0x0000029880F7C950>,<function functionImportanceB at 0x0000029880F7C268>,,,2.0,3.447566499999084,10.0,5.364271799999187,6.0,3.7647326000005705,<function functiondiffC at 0x0000029880A9F488>,<function functiondiffA at 0x0000029880A9F268>,<function functiondiffB at 0x0000029880A9F8C8>,,,,,1409.7368878999987,1442.8750998999985,None,1447.8413708999997,None,1439.5750633999996,None,011,001,2022_Jun_15_1246,2leo,2021.2.3,59.968576465983894,
3,34,Plan what car you want to buy,Stimuli/34A1.jpg,Stimuli/34A2.jpg,Stimuli/34A3.jpg,Stimuli/34B1.jpg,Stimuli/34B2.jpg,Stimuli/34B3.jpg,Stimuli/34C1.jpg,Stimuli/34C2.jpg,Stimuli/34C3.jpg,,,,,0,20,20,34,,,,,,,,1450.8247738999999,None,1451.8247425999998,None,1457.8247730999992,None,"[0.066, -0.395]","[0.306, 0.255]","[-0.377, 0.138]","[0.304, -0.26]","[0.07, 0.393]","[-0.378, -0.136]","[-0.203, -0.347]","[0.399, -0.003]","[-0.2, 0.346]",,14.109912840014658,11.52563474001363,7.942810940014169,"[-0.2037037037037037, 0.27870370370370373, 0.13425925925925927]","[0.32314814814814813, -0.21481481481481482, -0.3148148148148148]","[1, 1, 1]","[0, 0, 0]","[0, 0, 0]","[7.937366899999688, 11.520589699999618, 14.1051738999995]",0.004310040014388505,14.108243840013529,['A1'],['B1'],['C3'],['salmon'],['yellow'],['blue'],1475.5241614999995,None,5.0,2.0793749000004027,1475.5241614999995,None,1478.6241344999999,None,7.0,5.063787699999011,1488.3406614999985,None,7.0,3.631843300001492,1483.8072932999985,None,8.0,5.564991100000043,<function functionImportanceB at 0x0000029880F7C488>,<function functionImportanceA at 0x0000029880F7C378>,<function functionImportanceC at 0x0000029880F7C9D8>,,,4.0,3.6979394999998476,2.0,3.6977597000004607,2.0,5.564991100000043,<function functiondiffC at 0x0000029880F7C0D0>,<function functiondiffA at 0x0000029880A9FF28>,<function functiondiffB at 0x000002988128B488>,,,,,1460.9517874999983,1495.341097999999,None,1498.9567926,None,1491.9572448999988,None,011,001,2022_Jun_15_1246,2leo,2021.2.3,59.968576465983894,
3,31,Plan your order at a restaurant    ,Stimuli/31A1.jpg,Stimuli/31A2.jpg,Stimuli/31A3.jpg,Stimuli/31B1.jpg,Stimuli/31B2.jpg,Stimuli/31B3.jpg,Stimuli/31C1.jpg,Stimuli/31C2.jpg,Stimuli/31C3.jpg,,,,,0,21,21,31,,,,,,,,1501.9231035999983,None,1502.9233664999992,None,1508.9234565999996,None,"[0.066, -0.395]","[0.306, 0.255]","[-0.377, 0.138]","[-0.203, -0.347]","[0.399, -0.003]","[-0.2, 0.346]","[0.304, -0.26]","[0.07, 0.393]","[-0.378, -0.136]",,16.97402676001184,7.674516960010806,15.324494560010862,"[0.3888888888888889, 0.34629629629629627, 0.3055555555555556]","[0.003703703703703704, -0.2222222222222222, 0.22777777777777777]","[1, 1, 1]","[0, 0, 0]","[0, 0, 0]","[7.661623300000429, 15.311411200000293, 16.961392400000477]",0.01212936001138587,16.97332776001167,['A2'],['B2'],['C1'],['yellow'],['blue'],['salmon'],1528.9893328999988,None,8.0,1.9468208999987837,1528.9893328999988,None,1537.2891974999984,None,10.0,2.431638000000021,1531.0394292,None,10.0,2.547871099999611,1535.022658599999,None,10.0,3.6650712999999087,<function functionImportanceC at 0x0000029880F7CC80>,<function functionImportanceA at 0x0000029880F7CE18>,<function functionImportanceB at 0x0000029880F7CF28>,,,6.0,7.980786599999192,0.0,3.1812939000010374,3.0,3.6650712999999087,<function functiondiffB at 0x0000029880F7C048>,<function functiondiffA at 0x0000029880F7CB70>,<function functiondiffC at 0x0000029880F7CAE8>,,,,,1511.5593965999997,1548.005674,None,1539.672414999999,None,1550.872279199999,None,011,001,2022_Jun_15_1246,2leo,2021.2.3,59.968576465983894,
3,18,Plan your Saturday night ,Stimuli/18A1.jpg,Stimuli/18A2.jpg,Stimuli/18A3.jpg,Stimuli/18B1.jpg,Stimuli/18B2.jpg,Stimuli/18B3.jpg,Stimuli/18C1.jpg,Stimuli/18C2.jpg,Stimuli/18C3.jpg,,,,,0,22,22,18,,,,,,,,1554.721996799999,None,1555.7219766999988,None,1561.7218598,None,"[-0.2, 0.346]","[0.399, -0.003]","[-0.203, -0.347]","[-0.377, 0.138]","[0.306, 0.255]","[0.066, -0.395]","[-0.378, -0.136]","[0.07, 0.393]","[0.304, -0.26]",,8.32345068000177,4.343333280001389,11.890445680002813,"[0.29907407407407405, -0.175, -0.3194444444444444]","[0.2324074074074074, 0.3194444444444444, -0.08518518518518518]","[1, 1, 1]","[0, 0, 0]","[0, 0, 0]","[4.329328000001624, 8.311482099999921, 11.877961200001664]",0.011565980003069853,11.889265580002757,['A1'],['B2'],['C1'],['blue'],['salmon'],['yellow'],1575.221404599999,None,6.0,2.6470372999992833,1575.221404599999,None,1580.7878382999988,None,8.0,4.0813644000008935,1577.9547223999998,None,2.0,2.864364700000806,1584.9547046999996,None,10.0,3.264995199999248,<function functionImportanceC at 0x0000029880F7CEA0>,<function functionImportanceB at 0x0000029880F7C8C8>,<function functionImportanceA at 0x0000029880F7C6A8>,,,5.0,2.5311500999996497,2.0,3.6980050999991363,5.0,3.264995199999248,<function functiondiffB at 0x0000029880A9F2F0>,<function functiondiffA at 0x0000029880F7C400>,<function functiondiffC at 0x0000029880A9FBF8>,,,,,1562.8590494,1590.7211546999988,None,1588.1712928999987,None,1594.4376711999994,None,011,001,2022_Jun_15_1246,2leo,2021.2.3,59.968576465983894,
3,42,Plan how to draw a painting ,Stimuli/42A1.jpg,Stimuli/42A2.jpg,Stimuli/42A3.jpg,Stimuli/42B1.jpg,Stimuli/42B2.jpg,Stimuli/42B3.jpg,Stimuli/42C1.jpg,Stimuli/42C2.jpg,Stimuli/42C3.jpg,,,,,0,23,23,42,,,,,,,,1597.9538279999997,None,1598.9544885999985,None,1604.9541098999998,None,"[0.304, -0.26]","[-0.378, -0.136]","[0.07, 0.393]","[0.066, -0.395]","[-0.377, 0.138]","[0.306, 0.255]","[-0.203, -0.347]","[-0.2, 0.346]","[0.399, -0.003]",,17.376272980001886,9.209917280002628,15.293051380001998,"[0.06296296296296296, -0.18333333333333332, -0.33240740740740743]","[-0.4027777777777778, -0.3351851851851852, -0.17037037037037037]","[1, 1, 1]","[0, 0, 0]","[0, 0, 0]","[9.196196599999894, 15.279108999999153, 17.362738999998328]",0.013025280002693762,17.375444080002126,['A2'],['B1'],['C1'],['yellow'],['salmon'],['blue'],1624.1032766999997,None,7.0,2.0136074000001827,1624.1032766999997,None,1634.0199972999999,None,8.0,5.031694999999672,1630.0201433999991,None,7.0,3.998470200000156,1626.3367958,None,7.0,3.81430200000068,<function functionImportanceA at 0x0000029880F7C1E0>,<function functionImportanceC at 0x0000029881C85510>,<function functionImportanceB at 0x0000029881C859D8>,,,3.0,3.931288300000233,2.0,2.5482823999991524,3.0,3.81430200000068,<function functiondiffB at 0x0000029880F7C510>,<function functiondiffA at 0x0000029880A9FA60>,<function functiondiffC at 0x0000029880F7CD90>,,,,,1606.2557953999985,1643.0363418999987,None,1639.0531476999986,None,1645.569601699999,None,011,001,2022_Jun_15_1246,2leo,2021.2.3,59.968576465983894,
3,36,Plan your shopping for new clothing,Stimuli/36A1.jpg,Stimuli/36A2.jpg,Stimuli/36A3.jpg,Stimuli/36B1.jpg,Stimuli/36B2.jpg,Stimuli/36B3.jpg,Stimuli/36C1.jpg,Stimuli/36C2.jpg,Stimuli/36C3.jpg,,,,,0,24,24,36,,,,,,,,1647.952446899999,None,1648.9530261,None,1654.9529748999994,None,"[0.399, -0.003]","[-0.2, 0.346]","[-0.203, -0.347]","[0.306, 0.255]","[-0.377, 0.138]","[0.066, -0.395]","[0.07, 0.393]","[-0.378, -0.136]","[0.304, -0.26]",,3.632387680001557,11.213483780002207,8.01387368000178,"[-0.12222222222222222, 0.2759259259259259, -0.3175925925925926]","[0.3333333333333333, -0.24444444444444444, 0.08333333333333333]","[1, 1, 1]","[0, 0, 0]","[0, 0, 0]","[3.624424399999043, 8.006098300000303, 11.206019299999753]",0.006650780002019019,11.212638880002487,['A2'],['B2'],['C3'],['yellow'],['blue'],['salmon'],1667.7855373999992,None,8.0,2.6636030999998184,1667.7855373999992,None,1670.5022538999983,None,7.0,3.347921500000666,1676.1519673999992,None,5.0,3.9984196000004886,1673.8688507999996,None,10.0,2.2487013999998453,<function functionImportanceB at 0x0000029881C85048>,<function functionImportanceA at 0x0000029881C85C80>,<function functionImportanceC at 0x0000029881C85B70>,,,7.0,3.514248999999836,-0.0,2.2813074000005145,5.0,2.2487013999998453,<function functiondiffC at 0x0000029881C85620>,<function functiondiffB at 0x0000029880F7C7B8>,<function functiondiffA at 0x0000029880F7C158>,,,,,1656.0944849999996,1689.0183982999988,None,1685.4851070999994,None,1680.135311599999,None,011,001,2022_Jun_15_1246,2leo,2021.2.3,59.968576465983894,
3,14,Plan your own Pizza for dinner,Stimuli/14A1.jpg,Stimuli/14A2.jpg,Stimuli/14A3.jpg,Stimuli/14B1.jpg,Stimuli/14B2.jpg,Stimuli/14B3.jpg,Stimuli/14C1.jpg,Stimuli/14C2.jpg,Stimuli/14C3.jpg,,,,,0,25,25,14,,,,,,,,1690.818174,None,1691.8182142999995,None,1697.8182497999987,None,"[0.07, 0.393]","[-0.378, -0.136]","[0.304, -0.26]","[0.399, -0.003]","[-0.2, 0.346]","[-0.203, -0.347]","[0.306, 0.255]","[-0.377, 0.138]","[0.066, -0.395]",,12.173996620002072,10.757724620001682,6.741295320001882,"[-0.34814814814814815, 0.4101851851851852, -0.3435185185185185]","[0.10648148148148148, 0.03888888888888889, -0.09537037037037037]","[1, 1, 1]","[0, 0, 0]","[0, 0, 0]","[6.736626800000522, 10.753404799999771, 12.16984020000018]",0.0036439200030145003,12.173255520003295,['A2'],['B1'],['C2'],['salmon'],['blue'],['yellow'],1711.6509655999998,None,9.0,1.8971065999994607,1711.6509655999998,None,1716.3844683999996,None,8.0,2.848733299999367,1713.6009742999995,None,10.0,2.7145896999991237,1719.2177594999994,None,6.0,4.1811173999994935,<function functionImportanceC at 0x0000029881C85268>,<function functionImportanceB at 0x0000029881C85950>,<function functionImportanceA at 0x0000029881C857B8>,,,1.0,3.030692899999849,3.0,2.464618199999677,7.0,4.1811173999994935,<function functiondiffB at 0x0000029880F7C620>,<function functiondiffA at 0x0000029880F7CA60>,<function functiondiffC at 0x0000029881C85840>,,,,,1698.9957572999992,1726.4339234999989,None,1723.4008762999983,None,1728.917141,None,011,001,2022_Jun_15_1246,2leo,2021.2.3,59.968576465983894,
3,24,Plan your Monday morning on a workday ,Stimuli/24A1.jpg,Stimuli/24A2.jpg,Stimuli/24A3.jpg,Stimuli/24B1.jpg,Stimuli/24B2.jpg,Stimuli/24B3.jpg,Stimuli/24C1.jpg,Stimuli/24C2.jpg,Stimuli/24C3.jpg,,,,,0,26,26,24,,,,,,,,1732.850383699999,None,1733.8503926999983,None,1739.8504968999987,None,"[0.399, -0.003]","[-0.203, -0.347]","[-0.2, 0.346]","[0.07, 0.393]","[0.304, -0.26]","[-0.378, -0.136]","[0.306, 0.255]","[0.066, -0.395]","[-0.377, 0.138]",,7.6575749800013,14.039868280002338,16.83941958000105,"[-0.13796296296296295, -0.35, 0.2916666666666667]","[0.337037037037037, -0.12037037037037036, 0.2814814814814815]","[1, 1, 1]","[0, 0, 0]","[0, 0, 0]","[7.645577199999025, 14.027520399999048, 16.8269350999999]",0.011408180002035806,16.83832848000202,['A3'],['B3'],['C1'],['yellow'],['blue'],['salmon'],1758.2997534999995,None,8.0,2.363913400000456,1758.2997534999995,None,1769.766302599999,None,9.0,4.848581000000195,1760.7331728999998,None,9.0,4.297878299999866,1765.033220899999,None,9.0,4.698296600001413,<function functionImportanceC at 0x0000029881C851E0>,<function functionImportanceA at 0x0000029881C85E18>,<function functionImportanceB at 0x0000029881C85598>,,,5.0,2.8981629999998404,5.0,3.6812917000006564,0.0,4.698296600001413,<function functiondiffA at 0x0000029881C856A8>,<function functiondiffC at 0x0000029880F7C730>,<function functiondiffB at 0x0000029880F7CBF8>,,,,,1740.986594099999,1774.5994586999986,None,1780.6991492999987,None,1778.2994131999985,None,011,001,2022_Jun_15_1246,2leo,2021.2.3,59.968576465983894,
3,19,Plan how you want your garden to look like,Stimuli/19A1.jpg,Stimuli/19A2.jpg,Stimuli/19A3.jpg,Stimuli/19B1.jpg,Stimuli/19B2.jpg,Stimuli/19B3.jpg,Stimuli/19C1.jpg,Stimuli/19C2.jpg,Stimuli/19C3.jpg,,,,,0,27,27,19,,,,,,,,1783.1154179999994,None,1784.115767899999,None,1790.1158029999988,None,"[-0.203, -0.347]","[-0.2, 0.346]","[0.399, -0.003]","[0.304, -0.26]","[-0.378, -0.136]","[0.07, 0.393]","[0.066, -0.395]","[-0.377, 0.138]","[0.306, 0.255]",,10.705932560018482,24.188911060016835,5.723302760017759,"[0.2657407407407407, -0.19537037037037036, 0.262037037037037]","[0.2518518518518518, 0.2824074074074074, -0.2037037037037037]","[1, 1, 1]","[0, 0, 0]","[0, 0, 0]","[5.71947370000089, 10.702683800000159, 24.18549069999972]",0.0027437600183475297,24.188038860018423,['A2'],['B1'],['C3'],['salmon'],['yellow'],['blue'],1818.4148116999986,None,5.0,2.2301755999997113,1818.4148116999986,None,1825.9980876999998,None,8.0,3.7819426999994903,1830.0643015999995,None,8.0,3.5151401000002807,1820.7315378999992,None,7.0,4.16412290000153,<function functionImportanceA at 0x0000029881C852F0>,<function functionImportanceB at 0x0000029881C85A60>,<function functionImportanceC at 0x0000029881C85158>,,,10.0,7.1808578000000125,5.0,6.014422700000068,3.0,4.16412290000153,<function functiondiffA at 0x0000029881C85EA0>,<function functiondiffC at 0x00000298820B0400>,<function functiondiffB at 0x0000029881C85488>,,,,,1793.763461999999,1832.197960399999,None,1841.7977142,None,1838.599322,None,011,001,2022_Jun_15_1246,2leo,2021.2.3,59.968576465983894,
3,3,Plan a movie night with a friend,Stimuli/3A1.jpg,Stimuli/3A2.jpg,Stimuli/3A3.jpg,Stimuli/3B1.jpg,Stimuli/3B2.jpg,Stimuli/3B3.jpg,Stimuli/3C1.jpg,Stimuli/3C2.jpg,Stimuli/3C3.jpg,,,,,0,28,28,3,,,,,,,,1848.2471756999985,None,1849.247405799999,None,1855.2473591999988,None,"[-0.378, -0.136]","[0.304, -0.26]","[0.07, 0.393]","[-0.2, 0.346]","[-0.203, -0.347]","[0.399, -0.003]","[-0.377, 0.138]","[0.066, -0.395]","[0.306, 0.255]",,18.904333240017877,12.238017640016551,6.838307040015934,"[0.06574074074074074, -0.23333333333333334, 0.025]","[-0.35833333333333334, 0.3351851851851852, 0.38055555555555554]","[1, 1, 1]","[0, 0, 0]","[0, 0, 0]","[6.835114399998929, 12.235145799999373, 18.901526299998295]",0.0021935400163783925,18.90365144001771,['A3'],['B1'],['C2'],['blue'],['yellow'],['salmon'],1878.2464808000004,None,5.0,1.9807460000010906,1878.2464808000004,None,1888.7793745999988,None,8.0,3.5316816000013205,1884.3653064999999,None,7.0,5.431629200000316,1880.2965334,None,10.0,2.2646537000000535,<function functionImportanceA at 0x0000029881C85AE8>,<function functionImportanceC at 0x00000298820B0378>,<function functionImportanceB at 0x00000298820B08C8>,,,7.0,4.264352899997903,10.0,2.9645578999989084,5.0,2.2646537000000535,<function functiondiffB at 0x0000029881C85D08>,<function functiondiffA at 0x0000029881C850D0>,<function functiondiffC at 0x0000029881C85730>,,,,,1858.8786389999987,1895.8296305000003,None,1891.8962522000002,None,1899.1793007999986,None,011,001,2022_Jun_15_1246,2leo,2021.2.3,59.968576465983894,
3,38,Plan how you want to go for a run,Stimuli/38A1.jpg,Stimuli/38A2.jpg,Stimuli/38A3.jpg,Stimuli/38B1.jpg,Stimuli/38B2.jpg,Stimuli/38B3.jpg,Stimuli/38C1.jpg,Stimuli/38C2.jpg,Stimuli/38C3.jpg,,,,,0,29,29,38,,,,,,,,1902.7288062000007,None,1903.7291164999988,None,1909.7290458999996,None,"[-0.203, -0.347]","[-0.2, 0.346]","[0.399, -0.003]","[0.304, -0.26]","[-0.378, -0.136]","[0.07, 0.393]","[0.066, -0.395]","[-0.377, 0.138]","[0.306, 0.255]",,4.342794439999125,7.442962339999212,12.293198740000662,"[-0.13240740740740742, -0.337037037037037, -0.31574074074074077]","[0.31851851851851853, -0.1037037037037037, 0.13796296296296295]","[1, 1, 1]","[0, 0, 0]","[0, 0, 0]","[4.329270000001998, 7.429162600001291, 12.27920240000094]",0.01298873999985517,12.291872239999066,['A2'],['B2'],['C2'],['yellow'],['blue'],['salmon'],1923.7617408000006,None,8.0,2.0801547999981267,1923.7617408000006,None,1925.9453488,None,10.0,3.0642479000016465,1931.7118568999977,None,5.0,2.998380699998961,1928.9952894999988,None,10.0,2.5653233000011824,<function functionImportanceB at 0x00000298820B0A60>,<function functionImportanceA at 0x00000298820B0510>,<function functionImportanceC at 0x00000298820B02F0>,,,0.0,6.564343699999881,2.0,3.214693100002478,7.0,2.5653233000011824,<function functiondiffC at 0x0000029881C85BF8>,<function functiondiffA at 0x00000298820B01E0>,<function functiondiffB at 0x00000298820B0840>,,,,,1910.9986070999985,1937.5948757000006,None,1940.8281184000007,None,1934.5783410000004,None,011,001,2022_Jun_15_1246,2leo,2021.2.3,59.968576465983894,
3,4,Plan a game night at your place,Stimuli/4A1.jpg,Stimuli/4A2.jpg,Stimuli/4A3.jpg,Stimuli/4B1.jpg,Stimuli/4B2.jpg,Stimuli/4B3.jpg,Stimuli/4C1.jpg,Stimuli/4C2.jpg,Stimuli/4C3.jpg,,,,,0,30,30,4,,,,,,,,1986.2268930999999,None,1987.227092699999,None,1993.227113099998,None,"[-0.2, 0.346]","[0.399, -0.003]","[-0.203, -0.347]","[-0.377, 0.138]","[0.306, 0.255]","[0.066, -0.395]","[-0.378, -0.136]","[0.07, 0.393]","[0.304, -0.26]",,7.853083580012026,3.7539973800121516,11.220597580013418,"[-0.32222222222222224, -0.16574074074074074, 0.07592592592592592]","[0.15, -0.3490740740740741, 0.42314814814814816]","[1, 1, 1]","[0, 0, 0]","[0, 0, 0]","[3.7517274000019825, 7.850873900002625, 11.217867500003194]",0.0015902800150797702,11.219319280015043,['A3'],['B1'],['C2'],['yellow'],['blue'],['salmon'],2008.3263934999995,None,8.0,1.8971603999998479,2008.3263934999995,None,2019.2593854999977,None,9.0,2.2484124999973574,2011.5929577999996,None,7.0,5.164706800002023,2016.4456930999986,None,9.0,3.798484599999938,<function functionImportanceC at 0x00000298820B09D8>,<function functionImportanceA at 0x00000298820B0620>,<function functionImportanceB at 0x00000298820B0EA0>,,,2.0,2.4647794000011345,1.0,3.0312922000011895,2.0,3.798484599999938,<function functiondiffC at 0x00000298820B0D08>,<function functiondiffB at 0x00000298820B07B8>,<function functiondiffA at 0x00000298820B0F28>,,,,,1996.640960599998,2027.7927462999978,None,2024.9757188999974,None,2021.8928783999982,None,011,001,2022_Jun_15_1246,2leo,2021.2.3,59.968576465983894,
3,25,Plan how you want to read a book in your free time ,Stimuli/25A1.jpg,Stimuli/25A2.jpg,Stimuli/25A3.jpg,Stimuli/25B1.jpg,Stimuli/25B2.jpg,Stimuli/25B3.jpg,Stimuli/25C1.jpg,Stimuli/25C2.jpg,Stimuli/25C3.jpg,,,,,0,31,31,25,,,,,,,,2030.0253561999998,None,2031.026081699998,None,2037.0257371999978,None,"[-0.377, 0.138]","[0.066, -0.395]","[0.306, 0.255]","[-0.2, 0.346]","[-0.203, -0.347]","[0.399, -0.003]","[-0.378, -0.136]","[0.304, -0.26]","[0.07, 0.393]",,15.687280620008096,20.08731852001074,11.471166420011286,"[0.2861111111111111, -0.30833333333333335, -0.19814814814814816]","[-0.2388888888888889, 0.1, -0.27037037037037037]","[1, 1, 1]","[0, 0, 0]","[0, 0, 0]","[11.46810750000077, 15.684863000002224, 20.084550400002627]",0.0020167200091236737,20.086384020010883,['A1'],['B2'],['C2'],['salmon'],['blue'],['yellow'],2059.108260699999,None,5.0,2.297225599999365,2059.108260699999,None,2061.508341599998,None,8.0,3.130933799999184,2070.241419599999,None,10.0,3.015195500000118,2064.641590299998,None,7.0,5.2649641999996675,<function functionImportanceB at 0x0000029880A9FAE8>,<function functionImportanceA at 0x0000029880A9F620>,<function functionImportanceC at 0x00000298820B0D90>,,,3.0,2.8146276000006765,8.0,3.297691300002043,10.0,5.2649641999996675,<function functiondiffB at 0x00000298820B0950>,<function functiondiffA at 0x00000298820B0268>,<function functiondiffC at 0x00000298823D8158>,,,,,2038.5534843999994,2075.7413264999996,None,2072.924776699998,None,2079.141136399998,None,011,001,2022_Jun_15_1246,2leo,2021.2.3,59.968576465983894,
3,2,Plan which ingredients you want to use for cooking dinner today,Stimuli/2A1.jpg,Stimuli/2A2.jpg,Stimuli/2A3.jpg,Stimuli/2B1.jpg,Stimuli/2B2.jpg,Stimuli/2B3.jpg,Stimuli/2C1.jpg,Stimuli/2C2.jpg,Stimuli/2C3.jpg,,,,,0,32,32,2,,,,,,,,2080.757311900001,None,2081.7576494999994,None,2087.7577810000003,None,"[-0.203, -0.347]","[-0.2, 0.346]","[0.399, -0.003]","[0.066, -0.395]","[-0.377, 0.138]","[0.306, 0.255]","[0.304, -0.26]","[-0.378, -0.136]","[0.07, 0.393]",,6.798443540035805,10.098629640033323,8.565544940036489,"[-0.1527777777777778, 0.2916666666666667, -0.37777777777777777]","[0.3398148148148148, -0.1935185185185185, 0.18796296296296297]","[1, 1, 1]","[0, 0, 0]","[0, 0, 0]","[6.790694899998925, 8.55735679999998, 10.090605000001233]",0.0072392400361422915,10.097616440034471,['A2'],['B2'],['C1'],['blue'],['salmon'],['yellow'],2104.4401934999987,None,8.0,1.8299068000014813,2104.4401934999987,None,2113.440300399998,None,8.0,6.714824399998179,2117.5400960000006,None,10.0,2.99863650000043,2107.4234343999997,None,9.0,3.81447350000235,<function functionImportanceA at 0x0000029880A9F6A8>,<function functionImportanceB at 0x00000298823D8730>,<function functionImportanceC at 0x00000298823D8840>,,,3.0,4.84816900000078,7.0,3.064302000002499,2.0,3.81447350000235,<function functiondiffA at 0x00000298820B0598>,<function functiondiffC at 0x00000298823D88C8>,<function functiondiffB at 0x00000298820B0AE8>,,,,,2093.8841555,2120.223386400001,None,2128.5231897999984,None,2123.139843699999,None,011,001,2022_Jun_15_1246,2leo,2021.2.3,59.968576465983894,
3,37,Plan your cleaning routine ,Stimuli/37A1.jpg,Stimuli/37A2.jpg,Stimuli/37A3.jpg,Stimuli/37B1.jpg,Stimuli/37B2.jpg,Stimuli/37B3.jpg,Stimuli/37C1.jpg,Stimuli/37C2.jpg,Stimuli/37C3.jpg,,,,,0,33,33,37,,,,,,,,2132.0892120999997,None,2133.0899456000006,None,2139.0895877999974,None,"[-0.377, 0.138]","[0.306, 0.255]","[0.066, -0.395]","[-0.2, 0.346]","[0.399, -0.003]","[-0.203, -0.347]","[-0.378, -0.136]","[0.07, 0.393]","[0.304, -0.26]",,20.12472782000259,9.658746520002751,13.908531120003317,"[-0.20925925925925926, 0.08148148148148149, 0.2851851851851852]","[0.412962962962963, 0.37407407407407406, 0.2814814814814815]","[1, 1, 1]","[0, 0, 0]","[0, 0, 0]","[9.64565230000153, 13.895089199999347, 20.11181470000156]",0.012373820001812419,20.12399502000335,['A2'],['B1'],['C2'],['blue'],['salmon'],['yellow'],2160.8554158000006,None,10.0,2.2133615000020654,2160.8554158000006,None,2165.9886278999984,None,8.0,2.2485455999994883,2163.1388917000004,None,10.0,2.764759799996682,2168.2220586999974,None,10.0,2.5649671999999555,<function functionImportanceC at 0x00000298823D82F0>,<function functionImportanceB at 0x00000298823D8A60>,<function functionImportanceA at 0x00000298823D89D8>,,,0.0,2.547900399997161,0.0,2.1143842000019504,-0.0,2.5649671999999555,<function functiondiffB at 0x0000029880F7C840>,<function functiondiffC at 0x0000029880F7CD08>,<function functiondiffA at 0x0000029881C85378>,,,,,2140.2598844999993,2175.5551400999975,None,2170.738505199999,None,2173.305183299999,None,011,001,2022_Jun_15_1246,2leo,2021.2.3,59.968576465983894,
3,10,Plan a restaurant visit with your family on the weekend ,Stimuli/10A1.jpg,Stimuli/10A2.jpg,Stimuli/10A3.jpg,Stimuli/10B1.jpg,Stimuli/10B2.jpg,Stimuli/10B3.jpg,Stimuli/10C1.jpg,Stimuli/10C2.jpg,Stimuli/10C3.jpg,,,,,0,34,34,10,,,,,,,,2177.187990800001,None,2178.1883449999987,None,2184.1883897000007,None,"[-0.377, 0.138]","[0.306, 0.255]","[0.066, -0.395]","[-0.378, -0.136]","[0.07, 0.393]","[0.304, -0.26]","[-0.2, 0.346]","[0.399, -0.003]","[-0.203, -0.347]",,10.830362480013719,8.263970480016724,5.6977707800142525,"[-0.15833333333333333, 0.2851851851851852, 0.08981481481481482]","[-0.3851851851851852, -0.30462962962962964, -0.34814814814814815]","[1, 1, 1]","[0, 0, 0]","[0, 0, 0]","[5.690073800000391, 8.256517199999507, 10.823153099998308]",0.006571780013473472,10.829676580015075,['A3'],['B3'],['C3'],['yellow'],['blue'],['salmon'],2199.471065400001,None,8.0,1.6633166999999958,2199.471065400001,None,2211.1042297999993,None,10.0,4.998288999999204,2205.8044440999984,None,9.0,2.565306699998473,2201.3211174999997,None,5.0,4.597984700001689,<function functionImportanceA at 0x00000298823D8D90>,<function functionImportanceC at 0x00000298823D8400>,<function functionImportanceB at 0x00000298823D8BF8>,,,4.0,3.981636399999843,5.0,4.180884499997774,3.0,4.597984700001689,<function functiondiffA at 0x00000298823D8268>,<function functiondiffC at 0x00000298823D81E0>,<function functiondiffB at 0x00000298823D86A8>,,,,,2188.1803817,2213.4041822,None,2220.553888300001,None,2217.5874396,None,011,001,2022_Jun_15_1246,2leo,2021.2.3,59.968576465983894,
3,29,Plan a day in the mountains ,Stimuli/29A1.jpg,Stimuli/29A2.jpg,Stimuli/29A3.jpg,Stimuli/29B1.jpg,Stimuli/29B2.jpg,Stimuli/29B3.jpg,Stimuli/29C1.jpg,Stimuli/29C2.jpg,Stimuli/29C3.jpg,,,,,0,35,35,29,,,,,,,,2223.2867283999985,None,2224.287196199999,None,2230.287182,None,"[0.306, 0.255]","[-0.377, 0.138]","[0.066, -0.395]","[0.07, 0.393]","[-0.378, -0.136]","[0.304, -0.26]","[0.399, -0.003]","[-0.2, 0.346]","[-0.203, -0.347]",,11.188836279998213,8.822664380000788,5.689942479999445,"[-0.19074074074074074, 0.041666666666666664, -0.38981481481481484]","[-0.3101851851851852, 0.40555555555555556, 0.0962962962962963]","[1, 1, 1]","[0, 0, 0]","[0, 0, 0]","[5.677630799997132, 8.810783199998696, 11.177130599997326]",0.01121118000082788,11.188273479998315,['A2'],['B1'],['C3'],['yellow'],['blue'],['salmon'],2243.1697920999977,None,10.0,1.7807007000010344,2243.1697920999977,None,2247.4531220999997,None,9.0,4.965034299999388,2245.019750399999,None,10.0,2.3642015000004903,2252.453113899999,None,9.0,2.7315152999981365,<function functionImportanceC at 0x00000298820B0B70>,<function functionImportanceB at 0x00000298823D8C80>,<function functionImportanceA at 0x00000298823D8EA0>,,,0.0,2.6977829999996175,0.0,2.231189300000551,-0.0,2.7315152999981365,<function functiondiffB at 0x00000298823D87B8>,<function functiondiffA at 0x00000298823D8AE8>,<function functiondiffC at 0x00000298814A2510>,,,,,2231.5067290000006,2257.8364903,None,2255.1030455,None,2260.069770099999,None,011,001,2022_Jun_15_1246,2leo,2021.2.3,59.968576465983894,
3,35,Plan how you want to do your grocery shopping ,Stimuli/35A1.jpg,Stimuli/35A2.jpg,Stimuli/35A3.jpg,Stimuli/35B1.jpg,Stimuli/35B2.jpg,Stimuli/35B3.jpg,Stimuli/35C1.jpg,Stimuli/35C2.jpg,Stimuli/35C3.jpg,,,,,0,36,36,35,,,,,,,,2261.7356918000005,None,2262.736039200001,None,2268.736049299998,None,"[0.304, -0.26]","[-0.378, -0.136]","[0.07, 0.393]","[-0.203, -0.347]","[-0.2, 0.346]","[0.399, -0.003]","[0.066, -0.395]","[-0.377, 0.138]","[0.306, 0.255]",,14.171426299999439,9.337385799997719,21.80411919999824,"[-0.14814814814814814, 0.06111111111111111, -0.36018518518518516]","[-0.28888888888888886, 0.4305555555555556, 0.09259259259259259]","[1, 1, 1]","[0, 0, 0]","[0, 0, 0]","[9.334628200002044, 14.168802200001664, 21.800974699999642]",0.0020072999977855943,21.80283799999961,['A3'],['B1'],['C2'],['blue'],['salmon'],['yellow'],2292.2685606999985,None,6.0,1.6129584000009345,2292.2685606999985,None,2302.835067,None,7.0,2.8819424000030267,2299.2686009999998,None,8.0,3.46540449999884,2293.9687073999994,None,5.0,5.314263600001141,<function functionImportanceA at 0x00000298820B00D0>,<function functionImportanceC at 0x00000298820B0E18>,<function functionImportanceB at 0x00000298820B0158>,,,5.0,2.9315341000001354,7.0,4.031147000001511,3.0,5.314263600001141,<function functiondiffA at 0x00000298823D8B70>,<function functiondiffC at 0x00000298820B0488>,<function functiondiffB at 0x00000298823D8E18>,,,,,2269.9830315,2305.6351149,None,2315.5846146999975,None,2309.6849463,None,011,001,2022_Jun_15_1246,2leo,2021.2.3,59.968576465983894,
3,21,Plan your sandwich for lunch,Stimuli/21A1.jpg,Stimuli/21A2.jpg,Stimuli/21A3.jpg,Stimuli/21B1.jpg,Stimuli/21B2.jpg,Stimuli/21B3.jpg,Stimuli/21C1.jpg,Stimuli/21C2.jpg,Stimuli/21C3.jpg,,,,,0,37,37,21,,,,,,,,2318.0174296000005,None,2319.0178428,None,2325.0177947999982,None,"[0.306, 0.255]","[0.066, -0.395]","[-0.377, 0.138]","[0.399, -0.003]","[-0.203, -0.347]","[-0.2, 0.346]","[0.07, 0.393]","[0.304, -0.26]","[-0.378, -0.136]",,13.349423300001945,5.016360000001441,9.233332800002245,"[0.4324074074074074, 0.3037037037037037, -0.4074074074074074]","[-0.003703703703703704, -0.21944444444444444, 0.16574074074074074]","[1, 1, 1]","[0, 0, 0]","[0, 0, 0]","[5.007597399999213, 9.224269300000742, 13.340744500001165]",0.008070400002907263,13.348758500003896,['A3'],['B1'],['C2'],['yellow'],['blue'],['salmon'],2340.000570799999,None,6.0,1.5800638999971852,2340.000570799999,None,2343.9340420000008,None,5.0,2.5820061000013084,2346.5339356999975,None,9.0,2.464920800000982,2341.633825699999,None,9.0,2.2651680999988457,<function functionImportanceA at 0x0000029881C85400>,<function functionImportanceB at 0x00000298820B0730>,<function functionImportanceC at 0x00000298823D8048>,,,2.0,2.514484100000118,8.0,7.664342500000203,7.0,2.2651680999988457,<function functiondiffC at 0x00000298814A22F0>,<function functiondiffB at 0x00000298823D8488>,<function functiondiffA at 0x00000298823D8950>,,,,,2326.173899499998,2356.450277699998,None,2353.9171806999984,None,2348.9672284000007,None,011,001,2022_Jun_15_1246,2leo,2021.2.3,59.968576465983894,
3,39,Plan what kind of watch you want to buy,Stimuli/39A1.jpg,Stimuli/39A2.jpg,Stimuli/39A3.jpg,Stimuli/39B1.jpg,Stimuli/39B2.jpg,Stimuli/39B3.jpg,Stimuli/39C1.jpg,Stimuli/39C2.jpg,Stimuli/39C3.jpg,,,,,0,38,38,39,,,,,,,,2363.6328938999977,None,2364.6332932000005,None,2370.6333379999996,None,"[-0.203, -0.347]","[0.399, -0.003]","[-0.2, 0.346]","[0.066, -0.395]","[0.306, 0.255]","[-0.377, 0.138]","[0.304, -0.26]","[0.07, 0.393]","[-0.378, -0.136]",,4.643948939999973,8.810861239999213,16.49417664000066,"[0.45185185185185184, 0.30462962962962964, 0.26481481481481484]","[0.008333333333333333, 0.25092592592592594, -0.20555555555555555]","[1, 1, 1]","[0, 0, 0]","[0, 0, 0]","[4.629795100001502, 8.796411400002398, 16.479569200000697]",0.013650439999764785,16.493167140000878,['A2'],['B2'],['C1'],['yellow'],['blue'],['salmon'],2388.7825395,None,5.0,1.830108599999221,2388.7825395,None,2394.8824919,None,8.0,2.331872499999008,2390.7327449000004,None,-0.0,2.2480422999979055,2392.9492819000006,None,10.0,1.9316773999998986,<function functionImportanceC at 0x00000298814A2158>,<function functionImportanceA at 0x0000029881C85D90>,<function functionImportanceB at 0x00000298814A2378>,,,0.0,2.0978195000025153,0.0,3.2480682999994315,9.0,1.9316773999998986,<function functiondiffA at 0x00000298823D8510>,<function functiondiffB at 0x00000298823D8F28>,<function functiondiffC at 0x00000298814A2A60>,,,,,2371.8174709999985,2397.2158414000005,None,2400.4825023999983,None,2402.5990906999978,None,011,001,2022_Jun_15_1246,2leo,2021.2.3,59.968576465983894,
3,1,Plan how to study for an exam,Stimuli/1A1.jpg,Stimuli/1A2.jpg,Stimuli/1A3.jpg,Stimuli/1B1.jpg,Stimuli/1B2.jpg,Stimuli/1B3.jpg,Stimuli/1C1.jpg,Stimuli/1C2.jpg,Stimuli/1C3.jpg,,,,,0,39,39,1,,,,,,,,2404.532282199998,None,2405.5321423999994,None,2411.5322001999994,None,"[-0.2, 0.346]","[-0.203, -0.347]","[0.399, -0.003]","[-0.378, -0.136]","[0.304, -0.26]","[0.07, 0.393]","[-0.377, 0.138]","[0.066, -0.395]","[0.306, 0.255]",,10.751456040001358,14.768006140002399,6.235232240000187,"[-0.36203703703703705, -0.19444444444444445, -0.3638888888888889]","[0.13240740740740742, -0.3527777777777778, -0.16666666666666666]","[1, 1, 1]","[0, 0, 0]","[0, 0, 0]","[6.2336513999980525, 10.750342600000295, 14.766684099999111]",0.0006106399996497203,14.767203240000526,['A2'],['B1'],['C1'],['blue'],['salmon'],['yellow'],2427.898234799999,None,10.0,1.747140399998898,2427.898234799999,None,2437.997908199999,None,7.0,3.731691299999511,2429.6815532,None,10.0,2.4811937999984366,2432.2149299999983,None,9.0,5.764821199998551,<function functionImportanceC at 0x00000298814A2620>,<function functionImportanceA at 0x00000298814A29D8>,<function functionImportanceB at 0x00000298814A2400>,,,3.0,2.364430000001448,0.0,2.014784499999223,-0.0,5.764821199998551,<function functiondiffC at 0x00000298814A2950>,<function functiondiffB at 0x00000298814A26A8>,<function functiondiffA at 0x0000029881C85F28>,,,,,2412.6453331999983,2446.5478834999994,None,2444.1479832000005,None,2441.6979594000004,None,011,001,2022_Jun_15_1246,2leo,2021.2.3,59.968576465983894,
3,17,Plan a day in Barcelona with a friend who is new to the city,Stimuli/17A1.jpg,Stimuli/17A2.jpg,Stimuli/17A3.jpg,Stimuli/17B1.jpg,Stimuli/17B2.jpg,Stimuli/17B3.jpg,Stimuli/17C1.jpg,Stimuli/17C2.jpg,Stimuli/17C3.jpg,,,,,0,40,40,17,,,,,,,,2448.0810620999982,None,2449.0809738999997,None,2455.0809272000006,None,"[0.07, 0.393]","[0.304, -0.26]","[-0.378, -0.136]","[0.399, -0.003]","[-0.203, -0.347]","[-0.2, 0.346]","[0.306, 0.255]","[0.066, -0.395]","[-0.377, 0.138]",,9.994932840003457,16.04499434000536,13.378522040005919,"[-0.33055555555555555, 0.0824074074074074, -0.2175925925925926]","[-0.08981481481481482, -0.35, 0.3537037037037037]","[1, 1, 1]","[0, 0, 0]","[0, 0, 0]","[9.988778300001286, 13.371962199998961, 16.03859580000062]",0.005556840005738195,16.043912440003623,['A3'],['B3'],['C2'],['salmon'],['yellow'],['blue'],2472.796922999998,None,5.0,1.947167399997852,2472.796922999998,None,2479.8302280999997,None,1.0,3.764929500001017,2477.430294599999,None,8.0,2.381792199998017,2474.8469477,None,8.0,2.5981294000011985,<function functionImportanceA at 0x00000298814A2D08>,<function functionImportanceC at 0x00000298814A2AE8>,<function functionImportanceB at 0x00000298814A28C8>,,,1.0,3.9643844999991416,7.0,4.181163400000514,7.0,2.5981294000011985,<function functiondiffA at 0x00000298823D8378>,<function functiondiffC at 0x00000298814A2EA0>,<function functiondiffB at 0x00000298814A2D90>,,,,,2456.2724553000007,2483.580005,None,2490.763150999999,None,2487.763363099999,None,011,001,2022_Jun_15_1246,2leo,2021.2.3,59.968576465983894,
3,9,Plan a picnic with friends,Stimuli/9A1.jpg,Stimuli/9A2.jpg,Stimuli/9A3.jpg,Stimuli/9B1.jpg,Stimuli/9B2.jpg,Stimuli/9B3.jpg,Stimuli/9C1.jpg,Stimuli/9C2.jpg,Stimuli/9C3.jpg,,,,,0,41,41,9,,,,,,,,2494.2466803999996,None,2495.2464930999995,None,2501.246281399999,None,"[0.306, 0.255]","[0.066, -0.395]","[-0.377, 0.138]","[0.07, 0.393]","[0.304, -0.26]","[-0.378, -0.136]","[0.399, -0.003]","[-0.203, -0.347]","[-0.2, 0.346]",,13.274549460027629,10.691542660028063,5.99181966003016,"[0.44351851851851853, -0.4083333333333333, 0.30925925925925923]","[-0.01574074074074074, -0.16296296296296298, 0.24814814814814815]","[1, 1, 1]","[0, 0, 0]","[0, 0, 0]","[5.9787009000028775, 10.678585800000292, 13.262038799999573]",0.01210126002843026,13.273921560026793,['A1'],['B3'],['C1'],['yellow'],['salmon'],['blue'],2520.3623802,None,8.0,1.9636816999991424,2520.3623802,None,2527.2957824000005,None,9.0,3.7477359999975306,2523.8621835999984,None,8.0,3.613556600001175,2531.2956271999974,None,10.0,4.115126200002123,<function functionImportanceC at 0x00000298814A2598>,<function functionImportanceB at 0x00000298823D8D08>,<function functionImportanceA at 0x00000298820B0BF8>,,,5.0,3.080770399999892,0.0,2.7309574999999313,3.0,4.115126200002123,<function functiondiffB at 0x00000298814A2F28>,<function functiondiffA at 0x00000298814A2048>,<function functiondiffC at 0x0000029881907598>,,,,,2506.6361553999996,2537.478385300001,None,2534.262249200001,None,2540.212068099998,None,011,001,2022_Jun_15_1246,2leo,2021.2.3,59.968576465983894,
3,40,Plan to see a sports event ,Stimuli/40A1.jpg,Stimuli/40A2.jpg,Stimuli/40A3.jpg,Stimuli/40B1.jpg,Stimuli/40B2.jpg,Stimuli/40B3.jpg,Stimuli/40C1.jpg,Stimuli/40C2.jpg,Stimuli/40C3.jpg,,,,,0,42,42,40,,,,,,,,2542.6291225999994,None,2543.6286975000003,None,2549.6284137000002,None,"[-0.203, -0.347]","[0.399, -0.003]","[-0.2, 0.346]","[0.066, -0.395]","[0.306, 0.255]","[-0.377, 0.138]","[0.304, -0.26]","[0.07, 0.393]","[-0.378, -0.136]",,22.035956300002,7.420375100002275,12.420240300001751,"[0.287962962962963, 0.1287037037037037, -0.18055555555555555]","[0.28425925925925927, 0.3314814814814815, -0.2796296296296296]","[1, 1, 1]","[0, 0, 0]","[0, 0, 0]","[7.409539799999038, 12.409167999998317, 22.025582999998733]",0.009928500003297813,22.035498400000506,['A1'],['B2'],['C2'],['salmon'],['yellow'],['blue'],2573.5441255999976,None,8.0,2.3804331999999704,2573.5441255999976,None,2580.0609287000007,None,10.0,2.364911900000152,2582.3108447999984,None,2.0,2.381951700001082,2576.0609614999994,None,5.0,3.864885900002264,<function functionImportanceA at 0x00000298823D80D0>,<function functionImportanceB at 0x0000029881907AE8>,<function functionImportanceC at 0x00000298819076A8>,,,-0.0,2.6147921000010683,6.0,1.6646111999980349,0.0,3.864885900002264,<function functiondiffC at 0x0000029881907158>,<function functiondiffB at 0x00000298814A2730>,<function functiondiffA at 0x00000298814A2840>,,,,,2551.035637099998,2590.0439039999983,None,2587.4439292999996,None,2584.627199399998,None,011,001,2022_Jun_15_1246,2leo,2021.2.3,59.968576465983894,
3,20,Plan a tea party with your friends,Stimuli/20A1.jpg,Stimuli/20A2.jpg,Stimuli/20A3.jpg,Stimuli/20B1.jpg,Stimuli/20B2.jpg,Stimuli/20B3.jpg,Stimuli/20C1.jpg,Stimuli/20C2.jpg,Stimuli/20C3.jpg,,,,,0,43,43,20,,,,,,,,2591.2435258999976,None,2592.2437360000004,None,2598.2436825999976,None,"[-0.2, 0.346]","[-0.203, -0.347]","[0.399, -0.003]","[-0.378, -0.136]","[0.304, -0.26]","[0.07, 0.393]","[-0.377, 0.138]","[0.066, -0.395]","[0.306, 0.255]",,7.8049219400163565,17.97137294001368,4.472131440015801,"[-0.3527777777777778, -0.22407407407407406, 0.07685185185185185]","[0.15092592592592594, 0.2953703703703704, 0.41759259259259257]","[1, 1, 1]","[0, 0, 0]","[0, 0, 0]","[4.460563999997248, 7.793874299997697, 17.95986659999835]",0.010643540015735198,17.97046354001577,['A1'],['B3'],['C1'],['blue'],['salmon'],['yellow'],2620.2929931,None,5.0,2.0972091000003275,2620.2929931,None,2624.8596370999985,None,8.0,5.215271900000516,2631.1594372,None,9.0,2.048502500001632,2627.7094976000008,None,8.0,3.4652864999989106,<function functionImportanceB at 0x0000029881907048>,<function functionImportanceA at 0x0000029881907F28>,<function functionImportanceC at 0x0000029881907E18>,,,10.0,3.2811557999993965,0.0,3.614280300000246,2.0,3.4652864999989106,<function functiondiffA at 0x00000298814A2BF8>,<function functiondiffB at 0x00000298814A20D0>,<function functiondiffC at 0x00000298814A27B8>,,,,,2601.862857699998,2633.2094311,None,2637.375821400001,None,2640.1423990000003,None,011,001,2022_Jun_15_1246,2leo,2021.2.3,59.968576465983894,
3,6,Plan your wedding,Stimuli/6A1.jpg,Stimuli/6A2.jpg,Stimuli/6A3.jpg,Stimuli/6B1.jpg,Stimuli/6B2.jpg,Stimuli/6B3.jpg,Stimuli/6C1.jpg,Stimuli/6C2.jpg,Stimuli/6C3.jpg,,,,,0,44,44,6,,,,,,,,2641.9931270999987,None,2642.992296299999,None,2648.9922073999987,None,"[0.304, -0.26]","[-0.378, -0.136]","[0.07, 0.393]","[0.066, -0.395]","[-0.377, 0.138]","[0.306, 0.255]","[-0.203, -0.347]","[-0.2, 0.346]","[0.399, -0.003]",,10.396154220026801,13.24646802002826,8.59668942002827,"[0.38981481481481484, 0.35, 0.3212962962962963]","[-0.007407407407407408, -0.275, 0.21203703703703702]","[1, 1, 1]","[0, 0, 0]","[0, 0, 0]","[8.589391800000158, 10.389557700000296, 13.239434099999926]",0.006178420029755216,13.245256020029046,['A1'],['B3'],['C3'],['salmon'],['yellow'],['blue'],2667.8917205,None,8.0,1.9635994999989634,2667.8917205,None,2671.6582099000007,None,10.0,3.9647436999985075,2678.9412335999987,None,3.0,4.1818837000028,2675.042190699998,None,10.0,3.8318249999974796,<function functionImportanceB at 0x0000029881907620>,<function functionImportanceA at 0x0000029881907400>,<function functionImportanceC at 0x00000298819079D8>,,,10.0,6.631063799999538,0.0,2.363348399998358,1.0,3.8318249999974796,<function functiondiffC at 0x00000298819071E0>,<function functiondiffB at 0x0000029881907BF8>,<function functiondiffA at 0x00000298814A2E18>,,,,,2654.185289000001,2691.791121399998,None,2685.2079565999993,None,2682.324670599999,None,011,001,2022_Jun_15_1246,2leo,2021.2.3,59.968576465983894,
