Condition,N_Scenario,written_scenario,ImageA1,ImageA2,ImageA3,ImageB1,ImageB2,ImageB3,ImageC1,ImageC2,ImageC3,trials_2.thisRepN,trials_2.thisTrialN,trials_2.thisN,trials_2.thisIndex,trial.thisRepN,trial.thisTrialN,trial.thisN,trial.thisIndex,button_2.started,button_2.stopped,button_2.numClicks,button_2.timesOn,button_2.timesOff,text.started,text.stopped,fixationcross1_started,fixationcross1_stopped,Scenario_started,Scenario_stopped,fixationcross2_started,fixationcross2_stopped,A1pos,A2pos,A3pos,B1pos,B2pos,B3pos,C1pos,C2pos,C3pos,﻿Imagesdecision_started,decisiontimeA,decisiontimeB,decisiontimeC,mouse_x,mouse_y,mouse_leftButton,mouse_midButton,mouse_rightButton,mouse_time,mouse_started,mouse_stopped,clicked_optionA,clicked_optionB,clicked_optionC,colour_category_A,colour_category_B,colour_category_C,question_confidence_started,question_confidence_stopped,slider_confidence_response,slider_confidence_rt,slider_confidence_started,slider_confidence_stopped,question_valueA_started,question_valueA_stopped,slider_valueA_response,slider_valueA_rt,question_valueB_started,question_valueB_stopped,slider_valueB_response,slider_valueB_rt,question_valueC_started,question_valueC_stopped,slider_valueC_response,slider_valueC_rt,Importance_First,Importance_Second,Importance_Third,question_diff_started,question_diff_stopped,slider_diffC_response,slider_diffC_rt,slider_diffB_response,slider_diffB_rt,slider_diffA_response,slider_diffA_rt,diff_First,diff_Second,diff_Third,button_3_started,button_3_stopped,text_2_started,text_2_stopped,Imagesdecision_started,question_diffC_started,question_diffC_stopped,question_diffB_started,question_diffB_stopped,question_diffA_started,question_diffA_stopped,participant,session,date,expName,psychopyVersion,frameRate,
3,2,Plan a party to celebrate your birthday,Stimuli/2A1t.jpg,Stimuli/2A2t.jpg,Stimuli/2A3t.jpg,Stimuli/2B1t.jpg,Stimuli/2B2t.jpg,Stimuli/2B3t.jpg,Stimuli/2C1t.jpg,Stimuli/2C2t.jpg,Stimuli/2C3t.jpg,0,0,0,0,,,,,19.877827799999977,None,1,[3.706804000000375],[3.706821800000398],19.877827799999977,None,79.75578450000012,None,80.76536159999978,None,86.76547780000055,None,"[-0.378, -0.136]","[0.304, -0.26]","[0.07, 0.393]","[-0.377, 0.138]","[0.066, -0.395]","[0.306, 0.255]","[-0.2, 0.346]","[-0.203, -0.347]","[0.399, -0.003]",90.76163170000018,7.255049379996308,9.371816979996765,3.9053879799967035,"[-0.19074074074074074, 0.04722222222222222, 0.325]","[0.2851851851851852, 0.38981481481481484, 0.26851851851851855]","[1, 1, 1]","[0, 0, 0]","[0, 0, 0]","[3.9008305999996082, 7.25082189999921, 9.367328799999996]",0.0036274799967941362,9.370781979996536,['A3'],['B3'],['C1'],['blue'],['salmon'],['yellow'],100.59807060000003,None,7.0,6.629829399999835,100.59807060000003,None,108.58257560000038,None,6.0,8.98058089999995,117.84794599999987,None,9.0,7.065091599999505,123.39776929999971,None,7.0,3.2816757999999027,<function functionImportanceAt at 0x000001E5CB7C1D90>,<function functionImportanceBt at 0x000001E5CB7C1B70>,<function functionImportanceCt at 0x000001E5BC1B1E18>,135.6142232000002,None,2.0,4.680832099999861,10.0,3.7977266999996573,6.0,8.98058089999995,<function functiondiffCt at 0x000001E5CC4F1EA0>,<function functiondiffBt at 0x000001E5CC4F1F28>,<function functiondiffAt at 0x000001E5CC4F11E0>,,,,,,,,,,,,24,001,2022_Jul_20_1012,2leo,2021.2.3,59.97677699196371,
3,3,Plan one week of vacation,Stimuli/3A1t.jpg,Stimuli/3A2t.jpg,Stimuli/3A3t.jpg,Stimuli/3B1t.jpg,Stimuli/3B2t.jpg,Stimuli/3B3t.jpg,Stimuli/3C1t.jpg,Stimuli/3C2t.jpg,Stimuli/3C3t.jpg,0,1,1,1,,,,,,,,,,,,137.9139094000002,None,138.91410309999992,None,144.9139092000005,None,"[-0.377, 0.138]","[0.066, -0.395]","[0.306, 0.255]","[-0.378, -0.136]","[0.304, -0.26]","[0.07, 0.393]","[-0.2, 0.346]","[-0.203, -0.347]","[0.399, -0.003]",150.9852888000005,16.604536559993903,5.155205759993805,9.971934659994076,"[-0.36203703703703705, -0.25092592592592594, 0.10277777777777777]","[-0.1, 0.33611111111111114, -0.4027777777777778]","[1, 1, 1]","[0, 0, 0]","[0, 0, 0]","[5.144852700000229, 9.961352400000578, 16.594353800000135]",0.009647859994402097,16.603949759994066,['A2'],['B1'],['C1'],['yellow'],['salmon'],['blue'],168.04647720000048,None,7.0,3.4477937999999995,168.04647720000048,None,173.4631774999998,None,8.0,7.9310633999994025,181.21293140000034,None,8.0,8.114838899999995,189.09824180000032,None,6.0,4.8816962000000785,<function functionImportanceAt at 0x000001E5B90531E0>,<function functionImportanceBt at 0x000001E5CB7C1268>,<function functionImportanceCt at 0x000001E5CB7C1E18>,201.56257379999988,None,7.0,3.5145565000002534,3.0,2.781423200000063,1.0,7.9310633999994025,<function functiondiffAt at 0x000001E5CC4F1C80>,<function functiondiffBt at 0x000001E5CC4F1488>,<function functiondiffCt at 0x000001E5CC4F1158>,,,,,,,,,,,,24,001,2022_Jul_20_1012,2leo,2021.2.3,59.97677699196371,
3,4,Plan a game night at your place,Stimuli/4A1.jpg,Stimuli/4A2.jpg,Stimuli/4A3.jpg,Stimuli/4B1.jpg,Stimuli/4B2.jpg,Stimuli/4B3.jpg,Stimuli/4C1.jpg,Stimuli/4C2.jpg,Stimuli/4C3.jpg,,,,,0,0,0,4,,,,,,,,261.00576400000045,None,261.99425390000033,None,267.9941195000001,None,"[-0.377, 0.138]","[0.306, 0.255]","[0.066, -0.395]","[-0.378, -0.136]","[0.07, 0.393]","[0.304, -0.26]","[-0.2, 0.346]","[0.399, -0.003]","[-0.203, -0.347]",,8.77891279999676,5.44601949999651,7.04658379999637,"[0.29259259259259257, -0.18611111111111112, 0.06759259259259259]","[-0.2518518518518518, -0.2953703703703704, -0.3592592592592593]","[1, 1, 1]","[0, 0, 0]","[0, 0, 0]","[5.44365310000012, 7.060036699999728, 8.776709699999628]",0.0015255999969667755,8.778072299996893,['A3'],['B3'],['C3'],['yellow'],['salmon'],['blue'],280.72679700000026,None,8.0,3.646335200000067,280.72679700000026,None,297.19321240000045,None,6.0,3.59813689999919,292.04339020000043,None,8.0,4.098411300000407,285.7935121999999,None,6.0,7.564003599999523,<function functionImportanceC at 0x000001E5CC570E18>,<function functionImportanceB at 0x000001E5CC570048>,<function functionImportanceA at 0x000001E5CC4F1BF8>,,,4.0,3.59813689999919,5.0,4.731211500000427,5.0,3.3476439000005485,<function functiondiffC at 0x000001E5CC570AE8>,<function functiondiffB at 0x000001E5CC4F1620>,<function functiondiffA at 0x000001E5CC4F10D0>,204.16235430000052,None,204.16235430000052,None,271.4826468000001,300.0932051,None,305.6430611000005,None,310.7095360000003,None,24,001,2022_Jul_20_1012,2leo,2021.2.3,59.97677699196371,
3,44,Plan a party at your place,Stimuli/44A1.jpg,Stimuli/44A2.jpg,Stimuli/44A3.jpg,Stimuli/44B1.jpg,Stimuli/44B2.jpg,Stimuli/44B3.jpg,Stimuli/44C1.jpg,Stimuli/44C2.jpg,Stimuli/44C3.jpg,,,,,0,1,1,44,,,,,,,,313.2594841,None,314.2594392000001,None,320.2594551000002,None,"[0.066, -0.395]","[0.306, 0.255]","[-0.377, 0.138]","[-0.203, -0.347]","[0.399, -0.003]","[-0.2, 0.346]","[0.304, -0.26]","[0.07, 0.393]","[-0.378, -0.136]",,8.674326419999488,11.39140861999931,15.174305419999655,"[-0.3888888888888889, -0.21203703703703702, 0.30092592592592593]","[0.1574074074074074, 0.3351851851851852, -0.26296296296296295]","[1, 1, 1]","[0, 0, 0]","[0, 0, 0]","[8.662396300000182, 11.379278200000044, 15.162084600000526]",0.011298619999251969,15.173279419999744,['A3'],['B3'],['C1'],['blue'],['salmon'],['yellow'],337.04201639999974,None,6.0,2.430824900000516,337.04201639999974,None,352.3249697000001,None,6.0,3.331794599999739,339.5421707000005,None,7.0,6.131470799999988,345.7251304000001,None,5.0,6.598673799999233,<function functionImportanceB at 0x000001E5CC4F1950>,<function functionImportanceC at 0x000001E5CC5708C8>,<function functionImportanceA at 0x000001E5C8A60F28>,,,5.0,3.331794599999739,3.0,5.215098800000305,5.0,5.097894600000473,<function functiondiffC at 0x000001E5CC570268>,<function functiondiffB at 0x000001E5CC570A60>,<function functiondiffA at 0x000001E5CC570D90>,,,,,321.3950156000001,355.6250608999999,None,363.30824180000036,None,368.5247614,None,24,001,2022_Jul_20_1012,2leo,2021.2.3,59.97677699196371,
3,23,Plan a city trip,Stimuli/23A1.jpg,Stimuli/23A2.jpg,Stimuli/23A3.jpg,Stimuli/23B1.jpg,Stimuli/23B2.jpg,Stimuli/23B3.jpg,Stimuli/23C1.jpg,Stimuli/23C2.jpg,Stimuli/23C3.jpg,,,,,0,2,2,23,,,,,,,,373.1410163999999,None,374.14120550000007,None,380.14115649999985,None,"[-0.2, 0.346]","[0.399, -0.003]","[-0.203, -0.347]","[-0.378, -0.136]","[0.07, 0.393]","[0.304, -0.26]","[-0.377, 0.138]","[0.306, 0.255]","[0.066, -0.395]",,12.533530599999722,9.600585599999249,13.250483199999508,"[0.30462962962962964, 0.39351851851851855, 0.3388888888888889]","[-0.24259259259259258, 0.009259259259259259, 0.2777777777777778]","[1, 1, 1]","[0, 0, 0]","[0, 0, 0]","[9.583857599999646, 12.517138499999419, 13.233528900000238]",0.01588499999979831,13.249328499999137,['A2'],['B3'],['C2'],['salmon'],['blue'],['yellow'],395.0071385000001,None,8.0,5.247226999999839,395.0071385000001,None,400.30702870000005,None,7.0,4.7477686000001995,405.0902323999999,None,3.0,5.898494000000028,411.0401671999998,None,5.0,4.265254500000083,<function functionImportanceA at 0x000001E5CC5706A8>,<function functionImportanceB at 0x000001E5CB680EA0>,<function functionImportanceC at 0x000001E5C0E01E18>,,,1.0,4.7477686000001995,3.0,8.714331400000447,5.0,3.6312739999993937,<function functiondiffB at 0x000001E5CC570B70>,<function functiondiffA at 0x000001E5CC4F1598>,<function functiondiffC at 0x000001E5CC5700D0>,,,,,381.28795590000027,427.63978450000013,None,415.25682870000037,None,423.98993260000043,None,24,001,2022_Jul_20_1012,2leo,2021.2.3,59.97677699196371,
3,5,Plan a birthday party for your younger self when you turn eight,Stimuli/5A1.jpg,Stimuli/5A2.jpg,Stimuli/5A3.jpg,Stimuli/5B1.jpg,Stimuli/5B2.jpg,Stimuli/5B3.jpg,Stimuli/5C1.jpg,Stimuli/5C2.jpg,Stimuli/5C3.jpg,,,,,0,3,3,5,,,,,,,,432.0228103999998,None,433.0229859000001,None,439.02295930000037,None,"[0.306, 0.255]","[-0.377, 0.138]","[0.066, -0.395]","[0.399, -0.003]","[-0.2, 0.346]","[-0.203, -0.347]","[0.07, 0.393]","[-0.378, -0.136]","[0.304, -0.26]",,16.9637876999941,10.614051299994571,6.081003999994209,"[-0.41388888888888886, -0.2101851851851852, 0.09166666666666666]","[-0.11018518518518519, 0.37407407407407406, -0.3351851851851852]","[1, 1, 1]","[0, 0, 0]","[0, 0, 0]","[6.072812600000361, 10.606081099999756, 16.956057399999736]",0.007143799994082656,16.9629704999943,['A3'],['B2'],['C2'],['blue'],['salmon'],['yellow'],462.2386588999998,None,7.0,4.113786300000356,462.2386588999998,None,475.50958140000057,None,5.0,6.365329999999631,480.80490830000053,None,5.0,4.414462800000365,467.05518140000004,None,7.0,6.497638200000438,<function functionImportanceC at 0x000001E5CC570730>,<function functionImportanceA at 0x000001E5CC4F18C8>,<function functionImportanceB at 0x000001E5CC570840>,,,3.0,6.365329999999631,5.0,4.0974145999998655,7.0,7.765102999999726,<function functiondiffC at 0x000001E5CC4F1510>,<function functiondiffA at 0x000001E5CC570158>,<function functiondiffB at 0x000001E5CC4F16A8>,,,,,444.8185463,483.8549773000004,None,496.8046172000004,None,489.4217533000001,None,24,001,2022_Jul_20_1012,2leo,2021.2.3,59.97677699196371,
3,6,Plan your wedding,Stimuli/6A1.jpg,Stimuli/6A2.jpg,Stimuli/6A3.jpg,Stimuli/6B1.jpg,Stimuli/6B2.jpg,Stimuli/6B3.jpg,Stimuli/6C1.jpg,Stimuli/6C2.jpg,Stimuli/6C3.jpg,,,,,0,4,4,6,,,,,,,,500.0543617000003,None,501.0545462,None,507.05442719999974,None,"[0.306, 0.255]","[0.066, -0.395]","[-0.377, 0.138]","[0.07, 0.393]","[0.304, -0.26]","[-0.378, -0.136]","[0.399, -0.003]","[-0.203, -0.347]","[-0.2, 0.346]",,10.38208317999397,12.349111379993701,11.84919837999405,"[0.26851851851851855, -0.2037037037037037, 0.12685185185185185]","[0.2611111111111111, 0.3148148148148148, 0.32685185185185184]","[1, 1, 1]","[0, 0, 0]","[0, 0, 0]","[10.379107400000066, 11.84552259999964, 12.345894199999748]",0.002547679993767815,12.348129279994282,['A1'],['B1'],['C3'],['blue'],['salmon'],['yellow'],525.1037578000005,None,8.0,2.9469664999996894,525.1037578000005,None,537.5882978,None,7.0,5.0150311000006695,543.0702240999999,None,7.0,6.248209200000019,529.3538709000004,None,6.0,8.197471299999961,<function functionImportanceC at 0x000001E5CC5709D8>,<function functionImportanceA at 0x000001E5CC570950>,<function functionImportanceB at 0x000001E5CC570378>,,,3.0,5.0150311000006695,3.0,10.314783900000293,8.0,5.381586999999854,<function functiondiffB at 0x000001E5CC4F1A60>,<function functiondiffA at 0x000001E5CC4F1AE8>,<function functiondiffC at 0x000001E5CC570488>,,,,,512.2923025,563.7362772000006,None,547.9886230000002,None,558.2363604000002,None,24,001,2022_Jul_20_1012,2leo,2021.2.3,59.97677699196371,
3,8,Plan the interior of your living-room ,Stimuli/8A1.jpg,Stimuli/8A2.jpg,Stimuli/8A3.jpg,Stimuli/8B1.jpg,Stimuli/8B2.jpg,Stimuli/8B3.jpg,Stimuli/8C1.jpg,Stimuli/8C2.jpg,Stimuli/8C3.jpg,,,,,0,5,5,8,,,,,,,,568.7691941000003,None,569.7694166000001,None,575.7693434000003,None,"[0.066, -0.395]","[-0.377, 0.138]","[0.306, 0.255]","[-0.203, -0.347]","[-0.2, 0.346]","[0.399, -0.003]","[0.304, -0.26]","[-0.378, -0.136]","[0.07, 0.393]",,7.543738419994952,17.060726919994522,12.594073919995026,"[0.049074074074074076, -0.3787037037037037, 0.4444444444444444]","[-0.35185185185185186, -0.11666666666666667, -0.04259259259259259]","[1, 1, 1]","[0, 0, 0]","[0, 0, 0]","[7.541374600000381, 12.591103800000383, 17.05796360000022]",0.0019246199944973341,17.05967461999444,['A1'],['B3'],['C2'],['yellow'],['salmon'],['blue'],598.1685646000005,None,8.0,3.8470875000002707,598.1685646000005,None,608.4680852000001,None,9.0,2.2143840000007913,612.4850741999999,None,8.0,4.081800800000565,604.0541374000004,None,10.0,6.347701300000153,<function functionImportanceC at 0x000001E5803881E0>,<function functionImportanceA at 0x000001E5CC570BF8>,<function functionImportanceB at 0x000001E580388598>,,,2.0,2.2143840000007913,5.0,7.097511800000575,2.0,4.181189799999629,<function functiondiffB at 0x000001E5CC4F1730>,<function functiondiffA at 0x000001E5CC4F19D8>,<function functiondiffC at 0x000001E5CC570EA0>,,,,,580.6424040000002,626.6179282000003,None,615.2849012000006,None,621.8681729,None,24,001,2022_Jul_20_1012,2leo,2021.2.3,59.97677699196371,
3,3,Plan a movie night with a friend,Stimuli/3A1.jpg,Stimuli/3A2.jpg,Stimuli/3A3.jpg,Stimuli/3B1.jpg,Stimuli/3B2.jpg,Stimuli/3B3.jpg,Stimuli/3C1.jpg,Stimuli/3C2.jpg,Stimuli/3C3.jpg,,,,,0,6,6,3,,,,,,,,630.3676044000003,None,631.3676899000002,None,637.3677549000004,None,"[0.07, 0.393]","[-0.378, -0.136]","[0.304, -0.26]","[0.306, 0.255]","[-0.377, 0.138]","[0.066, -0.395]","[0.399, -0.003]","[-0.2, 0.346]","[-0.203, -0.347]",,19.48059237999678,15.164727679996759,5.481766979996792,"[-0.21203703703703702, 0.03796296296296296, 0.08703703703703704]","[0.32314814814814813, -0.4185185185185185, 0.38055555555555554]","[1, 1, 1]","[0, 0, 0]","[0, 0, 0]","[5.470249300000432, 15.153368700000101, 19.469641800000318]",0.01051717999689572,19.480094979997375,['A1'],['B3'],['C2'],['salmon'],['blue'],['yellow'],660.8836028000005,None,7.0,2.913763999999901,660.8836028000005,None,673.4667872999999,None,6.0,3.698669399999744,670.7833417000002,None,5.0,3.431643900000381,665.6526886000001,None,8.0,6.131439800000408,<function functionImportanceC at 0x000001E580388510>,<function functionImportanceB at 0x000001E580388378>,<function functionImportanceA at 0x000001E580388620>,,,1.0,3.698669399999744,3.0,3.364426000000094,4.0,5.663815299999442,<function functiondiffA at 0x000001E5CB7C16A8>,<function functiondiffC at 0x000001E5CC570C80>,<function functiondiffB at 0x000001E5C93BB9D8>,,,,,640.9454887000002,683.1664781,None,686.1995833000001,None,677.1499798000004,None,24,001,2022_Jul_20_1012,2leo,2021.2.3,59.97677699196371,
3,40,Plan to see a sports event ,Stimuli/40A1.jpg,Stimuli/40A2.jpg,Stimuli/40A3.jpg,Stimuli/40B1.jpg,Stimuli/40B2.jpg,Stimuli/40B3.jpg,Stimuli/40C1.jpg,Stimuli/40C2.jpg,Stimuli/40C3.jpg,,,,,0,7,7,40,,,,,,,,688.7160984000002,None,689.7161900000001,None,695.7161227000006,None,"[0.066, -0.395]","[-0.377, 0.138]","[0.306, 0.255]","[0.304, -0.26]","[-0.378, -0.136]","[0.07, 0.393]","[-0.203, -0.347]","[-0.2, 0.346]","[0.399, -0.003]",,13.995417400000406,4.829489700000522,19.895936200000506,"[0.275, -0.41944444444444445, -0.22592592592592592]","[-0.24074074074074073, 0.1685185185185185, 0.3277777777777778]","[1, 1, 1]","[0, 0, 0]","[0, 0, 0]","[4.8243609000001015, 13.990459399999963, 19.890475700000025]",0.004445800001121825,19.894711400001142,['A2'],['B1'],['C2'],['yellow'],['salmon'],['blue'],717.4154355000001,None,9.0,6.080140299999584,717.4154355000001,None,723.5986301000003,None,5.0,4.69740449999972,728.4819999000001,None,6.0,3.448527400000785,731.7984627000005,None,4.0,2.4318523000001733,<function functionImportanceA at 0x000001E580388C80>,<function functionImportanceB at 0x000001E580388048>,<function functionImportanceC at 0x000001E5803886A8>,,,2.0,4.69740449999972,1.0,2.2145389000006617,1.0,4.981560199999876,<function functiondiffC at 0x000001E580388F28>,<function functiondiffA at 0x000001E580388EA0>,<function functiondiffB at 0x000001E5803888C8>,,,,,697.0405185,734.1651700000002,None,743.7815080999999,None,738.7482829,None,24,001,2022_Jul_20_1012,2leo,2021.2.3,59.97677699196371,
3,36,Plan your shopping for new clothing,Stimuli/36A1.jpg,Stimuli/36A2.jpg,Stimuli/36A3.jpg,Stimuli/36B1.jpg,Stimuli/36B2.jpg,Stimuli/36B3.jpg,Stimuli/36C1.jpg,Stimuli/36C2.jpg,Stimuli/36C3.jpg,,,,,0,8,8,36,,,,,,,,745.4812693000003,None,746.4812867999999,None,752.4814076000002,None,"[-0.377, 0.138]","[0.066, -0.395]","[0.306, 0.255]","[-0.2, 0.346]","[-0.203, -0.347]","[0.399, -0.003]","[-0.378, -0.136]","[0.304, -0.26]","[0.07, 0.393]",,7.922443360000216,16.67264496000007,12.205805560000044,"[0.30462962962962964, 0.3111111111111111, 0.3731481481481482]","[0.22777777777777777, -0.2675925925925926, -0.01574074074074074]","[1, 1, 1]","[0, 0, 0]","[0, 0, 0]","[7.919669400000203, 12.219591999999466, 16.66966169999978]",0.002140460000191524,16.671513460000824,['A3'],['B3'],['C2'],['blue'],['salmon'],['yellow'],770.7472159999998,None,7.0,5.930102099999203,770.7472159999998,None,784.4970967999998,None,6.0,2.8651495000003706,776.7470911999999,None,5.0,3.5477872999999818,780.3137548000004,None,6.0,4.164867500000582,<function functionImportanceB at 0x000001E5CC570F28>,<function functionImportanceC at 0x000001E5CC5701E0>,<function functionImportanceA at 0x000001E580388D08>,,,4.0,2.8651495000003706,5.0,2.6148253999999724,3.0,4.5646485999996,<function functiondiffA at 0x000001E5803880D0>,<function functiondiffB at 0x000001E580388950>,<function functiondiffC at 0x000001E5807A0598>,,,,,753.5926692000003,794.5634550000004,None,791.9302107000003,None,787.3303743000006,None,24,001,2022_Jul_20_1012,2leo,2021.2.3,59.97677699196371,
3,28,Plan a one-week camping trip in Spain,Stimuli/28A1.jpg,Stimuli/28A2.jpg,Stimuli/28A3.jpg,Stimuli/28B1.jpg,Stimuli/28B2.jpg,Stimuli/28B3.jpg,Stimuli/28C1.jpg,Stimuli/28C2.jpg,Stimuli/28C3.jpg,,,,,0,9,9,28,,,,,,,,796.5799489000001,None,797.5799617000002,None,803.5801710000005,None,"[-0.378, -0.136]","[0.304, -0.26]","[0.07, 0.393]","[-0.377, 0.138]","[0.066, -0.395]","[0.306, 0.255]","[-0.2, 0.346]","[-0.203, -0.347]","[0.399, -0.003]",,12.333496240001296,15.783706540000821,19.66700014000071,"[-0.41574074074074074, 0.2777777777777778, -0.20092592592592592]","[-0.15462962962962962, 0.2833333333333333, 0.31574074074074077]","[1, 1, 1]","[0, 0, 0]","[0, 0, 0]","[12.317030400000476, 15.76666269999987, 19.649894200000745]",0.01604104000125517,19.665835440000592,['A1'],['B3'],['C1'],['yellow'],['salmon'],['blue'],824.829135,None,6.0,2.712577600000259,824.829135,None,827.6127931000001,None,7.0,9.130811500000164,836.7623067000004,None,7.0,4.514863000000332,841.2789736000004,None,7.0,2.415149499999643,<function functionImportanceA at 0x000001E5CC570D08>,<function functionImportanceB at 0x000001E580388A60>,<function functionImportanceC at 0x000001E580388730>,,,3.0,9.130811500000164,5.0,2.0147839999999633,6.0,4.2978094000000056,<function functiondiffA at 0x000001E5803882F0>,<function functiondiffB at 0x000001E580388400>,<function functiondiffC at 0x000001E5807A0730>,,,,,804.6944942,850.0453868000004,None,848.0121125000005,None,843.6956627999998,None,24,001,2022_Jul_20_1012,2leo,2021.2.3,59.97677699196371,
3,14,Plan your own Pizza for dinner,Stimuli/14A1.jpg,Stimuli/14A2.jpg,Stimuli/14A3.jpg,Stimuli/14B1.jpg,Stimuli/14B2.jpg,Stimuli/14B3.jpg,Stimuli/14C1.jpg,Stimuli/14C2.jpg,Stimuli/14C3.jpg,,,,,0,10,10,14,,,,,,,,852.2784911999997,None,853.2787073999998,None,859.2785212999997,None,"[0.306, 0.255]","[-0.377, 0.138]","[0.066, -0.395]","[0.07, 0.393]","[-0.378, -0.136]","[0.304, -0.26]","[0.399, -0.003]","[-0.2, 0.346]","[-0.203, -0.347]",,22.225183399999878,11.59230419999949,6.409239200000229,"[0.4074074074074074, 0.10092592592592593, -0.4009259259259259]","[0.04722222222222222, 0.43148148148148147, 0.13796296296296295]","[1, 1, 1]","[0, 0, 0]","[0, 0, 0]","[6.396389000000454, 11.579736800000319, 22.212765500000387]",0.01188319999982923,22.22458689999985,['A2'],['B1'],['C1'],['yellow'],['blue'],['salmon'],883.1278008999998,None,7.0,2.3969256999998834,883.1278008999998,None,889.7608274000004,None,8.0,3.0149466000002576,892.8276089999999,None,8.0,2.598525799999152,885.5779407,None,9.0,4.147696400000314,<function functionImportanceC at 0x000001E5807A01E0>,<function functionImportanceA at 0x000001E5807A00D0>,<function functionImportanceB at 0x000001E5807A0488>,,,1.0,3.0149466000002576,8.0,4.1472812000001795,9.0,2.1979841000002125,<function functiondiffB at 0x000001E580388E18>,<function functiondiffA at 0x000001E580388BF8>,<function functiondiffC at 0x000001E5807A09D8>,,,,,860.4306906000002,901.7606574000001,None,895.3942478999998,None,899.5441073000002,None,24,001,2022_Jul_20_1012,2leo,2021.2.3,59.97677699196371,
3,26,Plan how to wash one round of your laundry ,Stimuli/26A1.jpg,Stimuli/26A2.jpg,Stimuli/26A3.jpg,Stimuli/26B1.jpg,Stimuli/26B2.jpg,Stimuli/26B3.jpg,Stimuli/26C1.jpg,Stimuli/26C2.jpg,Stimuli/26C3.jpg,,,,,0,11,11,26,,,,,,,,904.3770808999998,None,905.3772584999997,None,911.3771287,None,"[0.304, -0.26]","[0.07, 0.393]","[-0.378, -0.136]","[0.066, -0.395]","[0.306, 0.255]","[-0.377, 0.138]","[-0.203, -0.347]","[0.399, -0.003]","[-0.2, 0.346]",,17.652962360000856,22.33653336000043,7.987066860000596,"[0.4148148148148148, 0.07407407407407407, -0.412962962962963]","[0.021296296296296296, 0.3787037037037037, 0.18055555555555555]","[1, 1, 1]","[0, 0, 0]","[0, 0, 0]","[7.976778100000047, 17.643211900000097, 22.326369400000658]",0.009255060001123638,22.335542360000545,['A2'],['B3'],['C2'],['yellow'],['blue'],['salmon'],935.2930235000003,None,8.0,2.3308328000002803,935.2930235000003,None,943.7763350000005,None,7.0,2.681752100000267,940.4096699000002,None,7.0,3.364963400000306,937.6932514,None,9.0,2.697769500000504,<function functionImportanceC at 0x000001E5807A0B70>,<function functionImportanceB at 0x000001E5807A0620>,<function functionImportanceA at 0x000001E5807A0950>,,,1.0,2.681752100000267,2.0,3.231132799999614,5.0,3.6640855000005104,<function functiondiffA at 0x000001E580388268>,<function functiondiffC at 0x000001E5803887B8>,<function functiondiffB at 0x000001E580388488>,,,,,912.4817886000001,950.1429452000002,None,953.9594246000006,None,946.4596842000001,None,24,001,2022_Jul_20_1012,2leo,2021.2.3,59.97677699196371,
3,39,Plan what kind of watch you want to buy,Stimuli/39A1.jpg,Stimuli/39A2.jpg,Stimuli/39A3.jpg,Stimuli/39B1.jpg,Stimuli/39B2.jpg,Stimuli/39B3.jpg,Stimuli/39C1.jpg,Stimuli/39C2.jpg,Stimuli/39C3.jpg,,,,,0,12,12,39,,,,,,,,956.7088730000005,None,957.7090901000001,None,963.7090734000003,None,"[0.07, 0.393]","[0.304, -0.26]","[-0.378, -0.136]","[0.306, 0.255]","[0.066, -0.395]","[-0.377, 0.138]","[0.399, -0.003]","[-0.203, -0.347]","[-0.2, 0.346]",,11.654889319999711,26.82135251999989,16.98823111999991,"[-0.38981481481481484, 0.425, -0.35833333333333334]","[-0.11851851851851852, -0.003703703703703704, 0.15]","[1, 1, 1]","[0, 0, 0]","[0, 0, 0]","[11.652705600000445, 16.985692700000072, 26.818929000000026]",0.0015772199994898983,26.82018701999914,['A3'],['B3'],['C1'],['yellow'],['blue'],['salmon'],992.1581264000006,None,7.0,3.963573600000018,992.1581264000006,None,1000.3416354000001,None,8.0,3.1485907999995106,1003.4914501000003,None,8.0,3.6483179999995627,996.2414968000003,None,5.0,4.131082500000048,<function functionImportanceC at 0x000001E5807A0D90>,<function functionImportanceA at 0x000001E5807A0510>,<function functionImportanceB at 0x000001E5807A0840>,,,5.0,3.1485907999995106,4.0,3.6639507999998386,1.0,2.6479632000000493,<function functiondiffB at 0x000001E580388B70>,<function functiondiffC at 0x000001E5807A0D08>,<function functiondiffA at 0x000001E580388D90>,,,,,964.8554951000006,1010.8247060000003,None,1007.1411813000004,None,1012.9578025000001,None,24,001,2022_Jul_20_1012,2leo,2021.2.3,59.97677699196371,
3,32,Plan how you want to relax after a workday,Stimuli/32A1.jpg,Stimuli/32A2.jpg,Stimuli/32A3.jpg,Stimuli/32B1.jpg,Stimuli/32B2.jpg,Stimuli/32B3.jpg,Stimuli/32C1.jpg,Stimuli/32C2.jpg,Stimuli/32C3.jpg,,,,,0,13,13,32,,,,,,,,1015.1240291000004,None,1016.1243586999999,None,1022.1243009999998,None,"[-0.378, -0.136]","[0.07, 0.393]","[0.304, -0.26]","[-0.377, 0.138]","[0.306, 0.255]","[0.066, -0.395]","[-0.2, 0.346]","[0.399, -0.003]","[-0.203, -0.347]",,15.043381799997405,7.6436448999975255,16.627250399997138,"[-0.4046296296296296, 0.2722222222222222, 0.41759259259259257]","[0.17407407407407408, -0.22962962962962963, 0.023148148148148147]","[1, 1, 1]","[0, 0, 0]","[0, 0, 0]","[7.6314550999995845, 15.031325599999946, 16.614716499999304]",0.011447999997471925,16.626045199996952,['A3'],['B1'],['C2'],['yellow'],['blue'],['salmon'],1042.1919411,None,7.0,4.9298463999994055,1042.1919411,None,1058.0566853999999,None,7.0,3.8483776000002763,1051.7400106000005,None,7.0,5.981591699999626,1047.1902732999997,None,9.0,3.7644531000005372,<function functionImportanceC at 0x000001E580388840>,<function functionImportanceB at 0x000001E5807A0C80>,<function functionImportanceA at 0x000001E5807A06A8>,,,0.0,3.8483776000002763,2.0,5.381730299999617,4.0,4.047250699999495,<function functiondiffA at 0x000001E5807A0048>,<function functiondiffB at 0x000001E5807A0EA0>,<function functiondiffC at 0x000001E580388AE8>,,,,,1025.1080431,1070.2564168999997,None,1065.0398032000003,None,1061.1399497000002,None,24,001,2022_Jul_20_1012,2leo,2021.2.3,59.97677699196371,
3,0,Plan a barbecue,Stimuli/0A1.jpg,Stimuli/0A2.jpg,Stimuli/0A3.jpg,Stimuli/0B1.jpg,Stimuli/0B2.jpg,Stimuli/0B3.jpg,Stimuli/0C1.jpg,Stimuli/0C2.jpg,Stimuli/0C3.jpg,,,,,0,14,14,0,,,,,,,,1072.2725787999998,None,1073.2731333000002,None,1079.2729631000002,None,"[-0.203, -0.347]","[0.399, -0.003]","[-0.2, 0.346]","[0.304, -0.26]","[0.07, 0.393]","[-0.378, -0.136]","[0.066, -0.395]","[0.306, 0.255]","[-0.377, 0.138]",,3.8960822999979428,9.06277549999777,11.562963699997454,"[0.362962962962963, -0.37777777777777777, -0.38425925925925924]","[0.0, -0.13240740740740742, 0.1824074074074074]","[1, 1, 1]","[0, 0, 0]","[0, 0, 0]","[3.8802999999998065, 9.046586700000262, 11.546525800000381]",0.01524899999731133,11.56158129999767,['A2'],['B3'],['C3'],['yellow'],['salmon'],['blue'],1093.772156,None,9.0,2.697360000000117,1093.772156,None,1097.905334,None,9.0,5.797977399999581,1102.3554141000004,None,7.0,2.631812099999479,1104.9888372000005,None,6.0,3.0652681999999913,<function functionImportanceA at 0x000001E5803889D8>,<function functionImportanceB at 0x000001E5807A0158>,<function functionImportanceC at 0x000001E580CA67B8>,,,7.0,5.797977399999581,6.0,4.68110119999983,0.0,2.8482109999995373,<function functiondiffB at 0x000001E5807A0AE8>,<function functiondiffC at 0x000001E580CA6488>,<function functiondiffA at 0x000001E5807A08C8>,,,,,1081.7573855,1112.7553131000004,None,1108.0388177000004,None,1115.9219033999998,None,24,001,2022_Jul_20_1012,2leo,2021.2.3,59.97677699196371,
3,30,Plan your sport work out for tomorrow,Stimuli/30A1.jpg,Stimuli/30A2.jpg,Stimuli/30A3.jpg,Stimuli/30B1.jpg,Stimuli/30B2.jpg,Stimuli/30B3.jpg,Stimuli/30C1.jpg,Stimuli/30C2.jpg,Stimuli/30C3.jpg,,,,,0,15,15,30,,,,,,,,1126.3049066000003,None,1127.3049141000001,None,1133.3047895999998,None,"[0.306, 0.255]","[0.066, -0.395]","[-0.377, 0.138]","[0.07, 0.393]","[0.304, -0.26]","[-0.378, -0.136]","[0.399, -0.003]","[-0.203, -0.347]","[-0.2, 0.346]",,8.692482380000001,16.69270348000009,11.24335538000014,"[0.05, -0.20277777777777778, 0.26944444444444443]","[-0.37777777777777777, 0.36574074074074076, -0.2537037037037037]","[1, 1, 1]","[0, 0, 0]","[0, 0, 0]","[8.679944000000432, 11.23022520000086, 16.679848000000675]",0.012038480000228446,16.691804180000872,['A2'],['B2'],['C3'],['yellow'],['salmon'],['blue'],1151.6372837999998,None,8.0,4.246987100000297,1151.6372837999998,None,1161.4052736000003,None,5.0,4.298134300000129,1165.7373011999998,None,7.0,3.615008499999931,1155.9541613000001,None,9.0,5.397576399999707,<function functionImportanceC at 0x000001E580CA6620>,<function functionImportanceA at 0x000001E5807A0BF8>,<function functionImportanceB at 0x000001E580CA6EA0>,,,2.0,4.298134300000129,7.0,2.698063999999249,9.0,3.8311847999993915,<function functiondiffC at 0x000001E580CA6BF8>,<function functiondiffA at 0x000001E580CA6C80>,<function functiondiffB at 0x000001E580CA6510>,,,,,1134.4720248000003,1169.2871799000004,None,1177.7035360999998,None,1173.8370008000002,None,24,001,2022_Jul_20_1012,2leo,2021.2.3,59.97677699196371,
3,37,Plan your cleaning routine ,Stimuli/37A1.jpg,Stimuli/37A2.jpg,Stimuli/37A3.jpg,Stimuli/37B1.jpg,Stimuli/37B2.jpg,Stimuli/37B3.jpg,Stimuli/37C1.jpg,Stimuli/37C2.jpg,Stimuli/37C3.jpg,,,,,0,16,16,37,,,,,,,,1179.9032179000005,None,1180.9034702999998,None,1186.9032905000004,None,"[-0.378, -0.136]","[0.304, -0.26]","[0.07, 0.393]","[-0.377, 0.138]","[0.066, -0.395]","[0.306, 0.255]","[-0.2, 0.346]","[-0.203, -0.347]","[0.399, -0.003]",,5.905795459999354,20.421495359999426,14.271671159999642,"[0.30925925925925923, -0.16296296296296298, 0.06111111111111111]","[-0.22870370370370371, 0.325, -0.41574074074074074]","[1, 1, 1]","[0, 0, 0]","[0, 0, 0]","[5.8952878999998575, 14.260710999999901, 20.410735399999794]",0.00999625999975251,20.42044235999947,['A2'],['B2'],['C1'],['salmon'],['blue'],['yellow'],1208.9023959000006,None,6.0,4.846695799999907,1208.9023959000006,None,1213.8193284999998,None,5.0,4.3979810000000725,1218.2356829,None,5.0,2.048599799999465,1220.2857327000002,None,5.0,3.132092599999851,<function functionImportanceA at 0x000001E580CA6048>,<function functionImportanceB at 0x000001E580CA6E18>,<function functionImportanceC at 0x000001E580CA69D8>,,,8.0,4.3979810000000725,3.0,4.064057099999445,5.0,7.247998199999529,<function functiondiffB at 0x000001E580CA6378>,<function functiondiffC at 0x000001E580CA6400>,<function functiondiffA at 0x000001E5807A07B8>,,,,,1188.0068984999998,1227.5022791000001,None,1223.4187689,None,1230.2521268,None,24,001,2022_Jul_20_1012,2leo,2021.2.3,59.97677699196371,
3,7,Plan your Sunday breakfast ,Stimuli/7A1.jpg,Stimuli/7A2.jpg,Stimuli/7A3.jpg,Stimuli/7B1.jpg,Stimuli/7B2.jpg,Stimuli/7B3.jpg,Stimuli/7C1.jpg,Stimuli/7C2.jpg,Stimuli/7C3.jpg,,,,,0,17,17,7,,,,,,,,1237.0181813,None,1238.0186835000004,None,1244.0185306000003,None,"[-0.377, 0.138]","[0.066, -0.395]","[0.306, 0.255]","[-0.2, 0.346]","[-0.203, -0.347]","[0.399, -0.003]","[-0.378, -0.136]","[0.304, -0.26]","[0.07, 0.393]",,14.265264759994352,11.415449759994772,7.0157862599944565,"[0.2657407407407407, -0.21666666666666667, -0.3453703703703704]","[-0.24722222222222223, -0.32592592592592595, 0.11388888888888889]","[1, 1, 1]","[0, 0, 0]","[0, 0, 0]","[7.007412599999952, 11.407288700000208, 14.257494000000406]",0.007356659994911752,14.264570959994671,['A1'],['B2'],['C2'],['yellow'],['blue'],['salmon'],1264.6510333000006,None,9.0,2.596542600000248,1264.6510333000006,None,1276.6364369000003,None,6.0,4.482138899999882,1269.1510284000005,None,8.0,7.514777499999582,1280.5672577000005,None,5.0,4.114889999999832,<function functionImportanceB at 0x000001E580388158>,<function functionImportanceA at 0x000001E580CA6840>,<function functionImportanceC at 0x000001E5807A02F0>,,,9.0,4.482138899999882,2.0,4.097461800000019,3.0,3.2312048000003415,<function functiondiffB at 0x000001E580CA6950>,<function functiondiffC at 0x000001E580CA6158>,<function functiondiffA at 0x000001E5807A0400>,,,,,1249.9292623000001,1287.9006731,None,1284.1174173999998,None,1290.7673298999998,None,24,001,2022_Jul_20_1012,2leo,2021.2.3,59.97677699196371,
3,19,Plan how you want your garden to look like,Stimuli/19A1.jpg,Stimuli/19A2.jpg,Stimuli/19A3.jpg,Stimuli/19B1.jpg,Stimuli/19B2.jpg,Stimuli/19B3.jpg,Stimuli/19C1.jpg,Stimuli/19C2.jpg,Stimuli/19C3.jpg,,,,,0,18,18,19,,,,,,,,1293.0019670000001,None,1294.0172217,None,1300.0169557,None,"[-0.2, 0.346]","[0.399, -0.003]","[-0.203, -0.347]","[-0.378, -0.136]","[0.07, 0.393]","[0.304, -0.26]","[-0.377, 0.138]","[0.306, 0.255]","[0.066, -0.395]",,13.392399899998054,10.842483399997946,4.442822499997419,"[-0.38333333333333336, -0.4101851851851852, 0.42407407407407405]","[0.15833333333333333, -0.15185185185185185, -0.046296296296296294]","[1, 1, 1]","[0, 0, 0]","[0, 0, 0]","[4.434773099999802, 10.834635700000035, 13.384766399999535]",0.007145899998249661,13.391794199998003,['A2'],['B1'],['C1'],['salmon'],['blue'],['yellow'],1317.5997016000001,None,6.0,3.8471750000007887,1317.5997016000001,None,1331.4994330999998,None,7.0,2.948417999999947,1322.6995882,None,7.0,5.697646600000553,1328.6493142,None,7.0,4.182107900000119,<function functionImportanceB at 0x000001E580CA6D08>,<function functionImportanceC at 0x000001E5813ED048>,<function functionImportanceA at 0x000001E5807A0E18>,,,2.0,2.948417999999947,9.0,2.5310160999997606,3.0,3.847736800000348,<function functiondiffA at 0x000001E5807A0268>,<function functiondiffC at 0x000001E580CA6268>,<function functiondiffB at 0x000001E580CA62F0>,,,,,1303.7481367999999,1338.6159706999997,None,1341.8160503999998,None,1334.365844,None,24,001,2022_Jul_20_1012,2leo,2021.2.3,59.97677699196371,
3,13,Plan a romantic date this weekend,Stimuli/13A1.jpg,Stimuli/13A2.jpg,Stimuli/13A3.jpg,Stimuli/13B1.jpg,Stimuli/13B2.jpg,Stimuli/13B3.jpg,Stimuli/13C1.jpg,Stimuli/13C2.jpg,Stimuli/13C3.jpg,,,,,0,19,19,13,,,,,,,,1343.6321137000004,None,1344.6324210000002,None,1350.6325801000003,None,"[-0.203, -0.347]","[0.399, -0.003]","[-0.2, 0.346]","[0.066, -0.395]","[0.306, 0.255]","[-0.377, 0.138]","[0.304, -0.26]","[0.07, 0.393]","[-0.378, -0.136]",,21.344255720000547,18.02797782000016,12.078468220000104,"[0.0962962962962963, 0.07685185185185185, 0.42685185185185187]","[0.40370370370370373, -0.3435185185185185, 0.05462962962962963]","[1, 1, 1]","[0, 0, 0]","[0, 0, 0]","[12.06474470000012, 18.014548399999512, 21.33088940000016]",0.012711220000710455,21.343500020000647,['A2'],['B1'],['C2'],['blue'],['salmon'],['yellow'],1373.6650217000006,None,5.0,4.029707300000155,1373.6650217000006,None,1381.8823446000006,None,6.0,3.5648975999993127,1385.5312080000003,None,7.0,3.1649317999999766,1377.8149807999998,None,9.0,4.079917999999452,<function functionImportanceC at 0x000001E5813ED2F0>,<function functionImportanceA at 0x000001E5813ED400>,<function functionImportanceB at 0x000001E5813ED1E0>,,,9.0,3.5648975999993127,8.0,3.8310068000000683,2.0,7.614499299999807,<function functiondiffB at 0x000001E5813ED158>,<function functiondiffC at 0x000001E5813ED0D0>,<function functiondiffA at 0x000001E580CA60D0>,,,,,1351.8488566000005,1392.4313725000002,None,1388.6148000000003,None,1395.4477513000002,None,24,001,2022_Jul_20_1012,2leo,2021.2.3,59.97677699196371,
3,29,Plan a day in the mountains ,Stimuli/29A1.jpg,Stimuli/29A2.jpg,Stimuli/29A3.jpg,Stimuli/29B1.jpg,Stimuli/29B2.jpg,Stimuli/29B3.jpg,Stimuli/29C1.jpg,Stimuli/29C2.jpg,Stimuli/29C3.jpg,,,,,0,20,20,29,,,,,,,,1402.5806014999998,None,1403.5807936,None,1409.5809258,None,"[-0.377, 0.138]","[0.066, -0.395]","[0.306, 0.255]","[-0.378, -0.136]","[0.304, -0.26]","[0.07, 0.393]","[-0.2, 0.346]","[-0.203, -0.347]","[0.399, -0.003]",,14.81069577999915,10.277982779999547,20.577545679999275,"[0.3453703703703704, -0.3314814814814815, -0.2388888888888889]","[-0.2759259259259259, 0.1398148148148148, 0.30648148148148147]","[1, 1, 1]","[0, 0, 0]","[0, 0, 0]","[10.272738699999536, 14.8057945999999, 20.57211610000013]",0.004481379999560886,20.57650767999985,['A1'],['B2'],['C1'],['salmon'],['yellow'],['blue'],1431.8134042000002,None,6.0,4.6133088000005955,1431.8134042000002,None,1439.6799511999998,None,5.0,3.098549500000445,1442.7298124,None,5.0,2.3315510000002178,1436.4967535000005,None,3.0,3.114379000000554,<function functionImportanceC at 0x000001E5813ED840>,<function functionImportanceA at 0x000001E5813EDAE8>,<function functionImportanceB at 0x000001E5813EDB70>,,,3.0,3.098549500000445,4.0,4.664584499999364,2.0,2.614606900000581,<function functiondiffC at 0x000001E580CA6D90>,<function functiondiffA at 0x000001E580CA6F28>,<function functiondiffB at 0x000001E580CA61E0>,,,,,1410.7556857999998,1445.0466370000004,None,1453.4463845999999,None,1450.8297271000001,None,24,001,2022_Jul_20_1012,2leo,2021.2.3,59.97677699196371,
3,20,Plan a tea party with your friends,Stimuli/20A1.jpg,Stimuli/20A2.jpg,Stimuli/20A3.jpg,Stimuli/20B1.jpg,Stimuli/20B2.jpg,Stimuli/20B3.jpg,Stimuli/20C1.jpg,Stimuli/20C2.jpg,Stimuli/20C3.jpg,,,,,0,21,21,20,,,,,,,,1457.6290706999998,None,1458.6294192000005,None,1464.6294359000003,None,"[-0.203, -0.347]","[-0.2, 0.346]","[0.399, -0.003]","[0.066, -0.395]","[-0.377, 0.138]","[0.306, 0.255]","[0.304, -0.26]","[-0.378, -0.136]","[0.07, 0.393]",,9.388108619997183,15.054996519997076,10.938765019996936,"[-0.1814814814814815, 0.3425925925925926, 0.3425925925925926]","[-0.30277777777777776, -0.2212962962962963, 0.24537037037037038]","[1, 1, 1]","[0, 0, 0]","[0, 0, 0]","[9.38172730000042, 10.93188680000003, 15.04816050000045]",0.005952019996584568,15.054078319996734,['A1'],['B3'],['C1'],['blue'],['yellow'],['salmon'],1483.6952892,None,8.0,3.297121600000537,1483.6952892,None,1487.0955345000002,None,9.0,8.381362199999785,1500.1785189000002,None,7.0,9.01481909999984,1495.4452889000004,None,7.0,2.2988865000006626,<function functionImportanceA at 0x000001E5813ED950>,<function functionImportanceC at 0x000001E5807A0A60>,<function functionImportanceB at 0x000001E5807A0378>,,,4.0,8.381362199999785,6.0,4.4145221999997375,1.0,3.0643921000000773,<function functiondiffA at 0x000001E5813ED6A8>,<function functiondiffB at 0x000001E5813ED9D8>,<function functiondiffC at 0x000001E5813EDC80>,,,,,1468.1799837999997,1514.2948010999999,None,1510.3949360000006,None,1506.7782036999997,None,24,001,2022_Jul_20_1012,2leo,2021.2.3,59.97677699196371,
3,18,Plan your Saturday night ,Stimuli/18A1.jpg,Stimuli/18A2.jpg,Stimuli/18A3.jpg,Stimuli/18B1.jpg,Stimuli/18B2.jpg,Stimuli/18B3.jpg,Stimuli/18C1.jpg,Stimuli/18C2.jpg,Stimuli/18C3.jpg,,,,,0,22,22,18,,,,,,,,1516.2442257000002,None,1517.2445996000006,None,1523.2445275,None,"[-0.2, 0.346]","[0.399, -0.003]","[-0.203, -0.347]","[-0.378, -0.136]","[0.07, 0.393]","[0.304, -0.26]","[-0.377, 0.138]","[0.306, 0.255]","[0.066, -0.395]",,11.139446260000113,10.106207859999813,15.956527559999813,"[0.08981481481481482, -0.21944444444444444, -0.3888888888888889]","[0.387037037037037, 0.3509259259259259, 0.1638888888888889]","[1, 1, 1]","[0, 0, 0]","[0, 0, 0]","[10.094731199999842, 11.128316400000585, 15.944887700000436]",0.010725159999310563,15.955356359999314,['A1'],['B2'],['C1'],['yellow'],['blue'],['salmon'],1540.7771899999998,None,7.0,3.8467000999999073,1540.7771899999998,None,1544.6956836,None,7.0,11.04737810000006,1555.7771050000001,None,8.0,3.2149709000004805,1558.9936699999998,None,3.0,3.9316120999992563,<function functionImportanceA at 0x000001E5813ED598>,<function functionImportanceB at 0x000001E5813ED268>,<function functionImportanceC at 0x000001E5807A0F28>,,,3.0,11.04737810000006,7.0,2.8478322000000844,5.0,4.414344099999653,<function functiondiffA at 0x000001E5813EDEA0>,<function functiondiffB at 0x000001E5813ED8C8>,<function functiondiffC at 0x000001E581134598>,,,,,1524.3478985000002,1570.2099712,None,1567.3266344000003,None,1562.8934663,None,24,001,2022_Jul_20_1012,2leo,2021.2.3,59.97677699196371,
3,42,Plan how to draw a painting ,Stimuli/42A1.jpg,Stimuli/42A2.jpg,Stimuli/42A3.jpg,Stimuli/42B1.jpg,Stimuli/42B2.jpg,Stimuli/42B3.jpg,Stimuli/42C1.jpg,Stimuli/42C2.jpg,Stimuli/42C3.jpg,,,,,0,23,23,42,,,,,,,,1572.9261080000006,None,1573.9263121000004,None,1579.9261674999998,None,"[-0.377, 0.138]","[0.066, -0.395]","[0.306, 0.255]","[-0.2, 0.346]","[-0.203, -0.347]","[0.399, -0.003]","[-0.378, -0.136]","[0.304, -0.26]","[0.07, 0.393]",,15.055520359999718,6.5890958600002705,10.172525959999803,"[-0.1712962962962963, 0.27037037037037037, 0.05555555555555555]","[0.3148148148148148, -0.24074074074074073, -0.36574074074074076]","[1, 1, 1]","[0, 0, 0]","[0, 0, 0]","[6.578832999999577, 10.161959199999728, 15.045440799999596]",0.009579460000168183,15.054499660000147,['A2'],['B1'],['C2'],['salmon'],['yellow'],['blue'],1596.7257174000006,None,9.0,2.9465512999995553,1596.7257174000006,None,1599.8921357999998,None,5.0,3.7640538999994533,1607.0587587,None,6.0,3.8489418999997724,1603.5256805,None,5.0,3.5151786000005814,<function functionImportanceA at 0x000001E5813EDD90>,<function functionImportanceC at 0x000001E581134378>,<function functionImportanceB at 0x000001E581134B70>,,,6.0,3.7640538999994533,7.0,4.481005300000106,4.0,2.5145428000005268,<function functiondiffB at 0x000001E5813ED488>,<function functiondiffC at 0x000001E581134AE8>,<function functiondiffA at 0x000001E5813ED7B8>,,,,,1581.1959523000005,1615.3922400000001,None,1610.8754718999999,None,1619.5088879000004,None,24,001,2022_Jul_20_1012,2leo,2021.2.3,59.97677699196371,
3,12,Plan the ingredients to mix yourself a cocktail,Stimuli/12A1.jpg,Stimuli/12A2.jpg,Stimuli/12A3.jpg,Stimuli/12B1.jpg,Stimuli/12B2.jpg,Stimuli/12B3.jpg,Stimuli/12C1.jpg,Stimuli/12C2.jpg,Stimuli/12C3.jpg,,,,,0,24,24,12,,,,,,,,1621.5086747000005,None,1622.5086398000003,None,1628.5085206000003,None,"[-0.377, 0.138]","[0.066, -0.395]","[0.306, 0.255]","[-0.378, -0.136]","[0.304, -0.26]","[0.07, 0.393]","[-0.2, 0.346]","[-0.203, -0.347]","[0.399, -0.003]",,15.809359019999647,18.493117319999328,9.343624520000049,"[0.44537037037037036, -0.3675925925925926, 0.2324074074074074]","[-0.009259259259259259, 0.13333333333333333, -0.25462962962962965]","[1, 1, 1]","[0, 0, 0]","[0, 0, 0]","[9.330218499999319, 15.796578200000113, 18.47997049999958]",0.012279719999241934,18.492108720000033,['A1'],['B2'],['C3'],['salmon'],['yellow'],['blue'],1648.6078097,None,7.0,5.129873599999883,1648.6078097,None,1653.8243355000004,None,6.0,7.064306700000088,1663.4740983000002,None,6.0,1.848638899999969,1660.8908345,None,6.0,2.5651424000006955,<function functionImportanceA at 0x000001E5811340D0>,<function functionImportanceC at 0x000001E5811346A8>,<function functionImportanceB at 0x000001E581134048>,,,8.0,7.064306700000088,7.0,4.364029400000618,8.0,2.5641797999996925,<function functiondiffB at 0x000001E5813EDE18>,<function functiondiffC at 0x000001E5813ED510>,<function functiondiffA at 0x000001E5813ED378>,,,,,1629.6414357000003,1669.6907501000005,None,1665.3075569000002,None,1675.0905205999998,None,24,001,2022_Jul_20_1012,2leo,2021.2.3,59.97677699196371,
3,11,Plan a hike in nature on a free day,Stimuli/11A1.jpg,Stimuli/11A2.jpg,Stimuli/11A3.jpg,Stimuli/11B1.jpg,Stimuli/11B2.jpg,Stimuli/11B3.jpg,Stimuli/11C1.jpg,Stimuli/11C2.jpg,Stimuli/11C3.jpg,,,,,0,25,25,11,,,,,,,,1677.1733857999998,None,1678.1736833000004,None,1684.1738508999997,None,"[-0.203, -0.347]","[0.399, -0.003]","[-0.2, 0.346]","[0.304, -0.26]","[0.07, 0.393]","[-0.378, -0.136]","[0.066, -0.395]","[0.306, 0.255]","[-0.377, 0.138]",,11.262720419999823,2.7131412199996703,6.746684920000007,"[0.037037037037037035, 0.2972222222222222, 0.42592592592592593]","[0.3768518518518518, 0.24537037037037038, 0.007407407407407408]","[1, 1, 1]","[0, 0, 0]","[0, 0, 0]","[2.6985023999995974, 6.7318252999994, 11.248357499999656]",0.013849519999894255,11.261977420000221,['A2'],['B2'],['C2'],['blue'],['salmon'],['yellow'],1697.0398777,None,8.0,4.180906400000822,1697.0398777,None,1706.5063424999998,None,3.0,6.7319174999993265,1704.2064619000002,None,7.0,2.281796599999325,1701.2898610000002,None,8.0,2.89649720000034,<function functionImportanceC at 0x000001E581134840>,<function functionImportanceB at 0x000001E581134EA0>,<function functionImportanceA at 0x000001E581134D90>,,,6.0,6.7319174999993265,1.0,3.5310894000003827,3.0,2.481209300000046,<function functiondiffB at 0x000001E581134BF8>,<function functiondiffA at 0x000001E581134620>,<function functiondiffC at 0x000001E581134F28>,,,,,1685.307167,1719.2728880000004,None,1713.2230226000001,None,1716.7729262000003,None,24,001,2022_Jul_20_1012,2leo,2021.2.3,59.97677699196371,
3,1,Plan how to study for an exam,Stimuli/1A1.jpg,Stimuli/1A2.jpg,Stimuli/1A3.jpg,Stimuli/1B1.jpg,Stimuli/1B2.jpg,Stimuli/1B3.jpg,Stimuli/1C1.jpg,Stimuli/1C2.jpg,Stimuli/1C3.jpg,,,,,0,26,26,1,,,,,,,,1721.7555684999998,None,1722.7559089000006,None,1728.7558752000004,None,"[0.306, 0.255]","[0.066, -0.395]","[-0.377, 0.138]","[0.07, 0.393]","[0.304, -0.26]","[-0.378, -0.136]","[0.399, -0.003]","[-0.203, -0.347]","[-0.2, 0.346]",,17.029704979999224,11.179950279999503,18.563455179999437,"[-0.3416666666666667, 0.30925925925925923, 0.3574074074074074]","[-0.13425925925925927, 0.2537037037037037, -0.03611111111111111]","[1, 1, 1]","[0, 0, 0]","[0, 0, 0]","[11.16477489999943, 17.014958799999476, 18.54815669999971]",0.014345879999382305,18.562218179999036,['A1'],['B3'],['C1'],['blue'],['salmon'],['yellow'],1748.871843,None,9.0,2.913742199999433,1748.871843,None,1755.6889259999998,None,7.0,2.1317448999998305,1757.8383599,None,7.0,4.498523400000522,1751.8217765,None,9.0,3.8146049000006315,<function functionImportanceC at 0x000001E5813ED620>,<function functionImportanceA at 0x000001E581134268>,<function functionImportanceB at 0x000001E5813EDA60>,,,4.0,2.1317448999998305,7.0,3.181355800000347,2.0,2.3313763000005565,<function functiondiffC at 0x000001E581134158>,<function functiondiffB at 0x000001E5811348C8>,<function functiondiffA at 0x000001E580CA6730>,,,,,1729.8384154000005,1762.3049578999999,None,1766.5548212000003,None,1769.7713934000003,None,24,001,2022_Jul_20_1012,2leo,2021.2.3,59.97677699196371,
3,10,Plan a restaurant visit with your family on the weekend ,Stimuli/10A1.jpg,Stimuli/10A2.jpg,Stimuli/10A3.jpg,Stimuli/10B1.jpg,Stimuli/10B2.jpg,Stimuli/10B3.jpg,Stimuli/10C1.jpg,Stimuli/10C2.jpg,Stimuli/10C3.jpg,,,,,0,27,27,10,,,,,,,,1771.6209383000005,None,1772.6213063000005,None,1778.6212612999998,None,"[-0.2, 0.346]","[0.399, -0.003]","[-0.203, -0.347]","[-0.378, -0.136]","[0.07, 0.393]","[0.304, -0.26]","[-0.377, 0.138]","[0.306, 0.255]","[0.066, -0.395]",,15.630175159995815,17.680436359995838,5.1481974599964815,"[0.030555555555555555, -0.2074074074074074, -0.38425925925925924]","[-0.37592592592592594, 0.3814814814814815, -0.11666666666666667]","[1, 1, 1]","[0, 0, 0]","[0, 0, 0]","[5.138640999999552, 15.621288999999706, 17.671257500000138]",0.008473259996208071,17.679652859996168,['A1'],['B1'],['C3'],['salmon'],['yellow'],['blue'],1800.6870853,None,9.0,2.347056199999315,1800.6870853,None,1817.5535774,None,9.0,2.8317957999997816,1805.8038299,None,7.0,14.314359500000137,1820.2700364000002,None,7.0,2.252419700000246,<function functionImportanceB at 0x000001E5817771E0>,<function functionImportanceA at 0x000001E581134E18>,<function functionImportanceC at 0x000001E5817772F0>,,,5.0,2.8317957999997816,3.0,11.531346100000519,2.0,4.948167100000319,<function functiondiffB at 0x000001E581777510>,<function functiondiffA at 0x000001E581134730>,<function functiondiffC at 0x000001E581777400>,,,,,1782.5471112000005,1839.0362728999999,None,1823.3198819999998,None,1834.0864059000005,None,24,001,2022_Jul_20_1012,2leo,2021.2.3,59.97677699196371,
3,24,Plan your Monday morning on a workday ,Stimuli/24A1.jpg,Stimuli/24A2.jpg,Stimuli/24A3.jpg,Stimuli/24B1.jpg,Stimuli/24B2.jpg,Stimuli/24B3.jpg,Stimuli/24C1.jpg,Stimuli/24C2.jpg,Stimuli/24C3.jpg,,,,,0,28,28,24,,,,,,,,1841.3524459999999,None,1842.3529596999997,None,1848.352804,None,"[-0.203, -0.347]","[-0.2, 0.346]","[0.399, -0.003]","[0.066, -0.395]","[-0.377, 0.138]","[0.306, 0.255]","[0.304, -0.26]","[-0.378, -0.136]","[0.07, 0.393]",,10.449631440000303,18.001100740000766,31.935369040000296,"[-0.14166666666666666, 0.04722222222222222, 0.05925925925925926]","[-0.3333333333333333, -0.31203703703703706, 0.4166666666666667]","[1, 1, 1]","[0, 0, 0]","[0, 0, 0]","[10.44171869999991, 17.99289200000021, 31.9248819000004]",0.007517440000810893,31.932144140000673,['A1'],['B1'],['C3'],['salmon'],['yellow'],['blue'],1881.9016444999997,None,7.0,2.5731810999996014,1881.9016444999997,None,1891.8349850000004,None,9.0,2.3151041000000987,1884.5858644,None,6.0,4.779437499999403,1889.3348379,None,6.0,2.4814276999995855,<function functionImportanceB at 0x000001E5817770D0>,<function functionImportanceC at 0x000001E581777A60>,<function functionImportanceA at 0x000001E5817777B8>,,,7.0,2.3151041000000987,7.0,3.0808782999993127,2.0,4.53105080000023,<function functiondiffC at 0x000001E5811349D8>,<function functiondiffB at 0x000001E581134510>,<function functiondiffA at 0x000001E581134950>,,,,,1849.4747329000002,1894.1349964,None,1897.6848731,None,1900.7844553000004,None,24,001,2022_Jul_20_1012,2leo,2021.2.3,59.97677699196371,
3,22,Plan a beach day with your friends,Stimuli/22A1.jpg,Stimuli/22A2.jpg,Stimuli/22A3.jpg,Stimuli/22B1.jpg,Stimuli/22B2.jpg,Stimuli/22B3.jpg,Stimuli/22C1.jpg,Stimuli/22C2.jpg,Stimuli/22C3.jpg,,,,,0,29,29,22,,,,,,,,1904.8346564000003,None,1905.8344748,None,1911.8343071999998,None,"[-0.378, -0.136]","[0.07, 0.393]","[0.304, -0.26]","[-0.2, 0.346]","[0.399, -0.003]","[-0.203, -0.347]","[-0.377, 0.138]","[0.306, 0.255]","[0.066, -0.395]",,2.9102353400003267,13.24326543999996,8.327028340000652,"[-0.39444444444444443, 0.2675925925925926, -0.1787037037037037]","[-0.1388888888888889, 0.2324074074074074, 0.3138888888888889]","[1, 1, 1]","[0, 0, 0]","[0, 0, 0]","[2.90539600000011, 8.321591200000512, 13.238162900000134]",0.004364740000710299,13.242449740000666,['A1'],['B1'],['C2'],['salmon'],['blue'],['yellow'],1926.6838028000002,None,8.0,2.5134871999998722,1926.6838028000002,None,1933.933779,None,5.0,2.8315792000003057,1929.2505052000006,None,2.0,4.647315700000036,1936.8003508000002,None,7.0,2.565000399999917,<function functionImportanceB at 0x000001E581777AE8>,<function functionImportanceA at 0x000001E5817778C8>,<function functionImportanceC at 0x000001E5817776A8>,,,3.0,2.8315792000003057,8.0,2.797586099999535,1.0,2.8644805000003544,<function functiondiffA at 0x000001E581777BF8>,<function functiondiffC at 0x000001E581777840>,<function functiondiffB at 0x000001E581777E18>,,,,,1912.9613931000004,1942.2170041,None,1944.7169519999998,None,1939.3336626999999,None,24,001,2022_Jul_20_1012,2leo,2021.2.3,59.97677699196371,
3,27,Plan what festival to visit with your friends,Stimuli/27A1.jpg,Stimuli/27A2.jpg,Stimuli/27A3.jpg,Stimuli/27B1.jpg,Stimuli/27B2.jpg,Stimuli/27B3.jpg,Stimuli/27C1.jpg,Stimuli/27C2.jpg,Stimuli/27C3.jpg,,,,,0,30,30,27,,,,,,,,1958.6165197,None,1959.6167266000002,None,1965.6163588999998,None,"[0.304, -0.26]","[0.07, 0.393]","[-0.378, -0.136]","[-0.203, -0.347]","[0.399, -0.003]","[-0.2, 0.346]","[0.066, -0.395]","[0.306, 0.255]","[-0.377, 0.138]",,4.574245660000088,13.32427306000045,9.674487360000057,"[0.29259259259259257, -0.42314814814814816, 0.38055555555555554]","[-0.24351851851851852, 0.16574074074074074, 0.044444444444444446]","[1, 1, 1]","[0, 0, 0]","[0, 0, 0]","[4.562554799999816, 9.662139500000194, 13.312235399999736]",0.011285960000350315,13.323178759999792,['A1'],['B2'],['C3'],['blue'],['salmon'],['yellow'],1980.5156679000002,None,9.0,2.5640398000005007,1980.5156679000002,None,1983.1324925999998,None,8.0,4.431432700000187,1990.4322109000004,None,7.0,2.265255100000104,1987.5991491000004,None,6.0,2.8148629999996047,<function functionImportanceA at 0x000001E581777D08>,<function functionImportanceC at 0x000001E5817779D8>,<function functionImportanceB at 0x000001E581777268>,,,5.0,4.431432700000187,4.0,3.3143954999995913,1.0,2.1142852000002677,<function functiondiffC at 0x000001E581777C80>,<function functiondiffA at 0x000001E581777158>,<function functiondiffB at 0x000001E581777620>,,,,,1966.7189057000005,1992.6822382,None,1998.0988736999998,None,1995.9655272999998,None,24,001,2022_Jul_20_1012,2leo,2021.2.3,59.97677699196371,
3,25,Plan how you want to read a book in your free time ,Stimuli/25A1.jpg,Stimuli/25A2.jpg,Stimuli/25A3.jpg,Stimuli/25B1.jpg,Stimuli/25B2.jpg,Stimuli/25B3.jpg,Stimuli/25C1.jpg,Stimuli/25C2.jpg,Stimuli/25C3.jpg,,,,,0,31,31,25,,,,,,,,2000.9325838000004,None,2001.9318404000005,None,2007.9319616000002,None,"[-0.377, 0.138]","[0.306, 0.255]","[0.066, -0.395]","[-0.2, 0.346]","[0.399, -0.003]","[-0.203, -0.347]","[-0.378, -0.136]","[0.07, 0.393]","[0.304, -0.26]",,7.9409383599995635,11.524464959999023,15.924559459998818,"[0.08611111111111111, 0.40555555555555556, 0.27870370370370373]","[-0.4111111111111111, -0.03425925925925926, -0.225]","[1, 1, 1]","[0, 0, 0]","[0, 0, 0]","[7.938880400000016, 11.522186199999851, 15.922018999999636]",0.001447659999030293,15.923312959998839,['A3'],['B2'],['C3'],['blue'],['yellow'],['salmon'],2025.7811546000003,None,7.0,2.0977422999994815,2025.7811546000003,None,2039.6977849000004,None,7.0,2.7649922999999035,2035.9144080000005,None,7.0,3.7985850000004575,2028.2479128000004,None,6.0,7.914015199999994,<function functionImportanceC at 0x000001E580CA6598>,<function functionImportanceB at 0x000001E580CA6AE8>,<function functionImportanceA at 0x000001E581777488>,,,5.0,2.7649922999999035,4.0,2.947751500000777,2.0,3.8809485000001587,<function functiondiffA at 0x000001E581777F28>,<function functiondiffC at 0x000001E582651840>,<function functiondiffB at 0x000001E581777378>,,,,,2009.3900045999999,2046.4309318000005,None,2049.2307733,None,2042.4477444000004,None,24,001,2022_Jul_20_1012,2leo,2021.2.3,59.97677699196371,
3,17,Plan a day in Barcelona with a friend who is new to the city,Stimuli/17A1.jpg,Stimuli/17A2.jpg,Stimuli/17A3.jpg,Stimuli/17B1.jpg,Stimuli/17B2.jpg,Stimuli/17B3.jpg,Stimuli/17C1.jpg,Stimuli/17C2.jpg,Stimuli/17C3.jpg,,,,,0,32,32,17,,,,,,,,2051.6814941000002,None,2052.6806274,None,2058.680638,None,"[0.07, 0.393]","[-0.378, -0.136]","[0.304, -0.26]","[0.306, 0.255]","[-0.377, 0.138]","[0.066, -0.395]","[0.399, -0.003]","[-0.2, 0.346]","[-0.203, -0.347]",,13.731123300000945,4.481743800000913,5.848287100000562,"[-0.42962962962962964, 0.36018518518518516, 0.29259259259259257]","[0.14444444444444443, 0.030555555555555555, -0.22407407407407406]","[1, 1, 1]","[0, 0, 0]","[0, 0, 0]","[4.466267000000698, 5.832634000000326, 13.715814099999989]",0.014711000000716012,13.730308200000763,['A3'],['B2'],['C1'],['yellow'],['blue'],['salmon'],2074.0300073999997,None,7.0,5.346771100000296,2074.0300073999997,None,2082.0965920999997,None,3.0,3.015316800000619,2085.0966043,None,6.0,1.7318856000001688,2079.4632186999997,None,9.0,2.5973629999998593,<function functionImportanceC at 0x000001E582651598>,<function functionImportanceA at 0x000001E580CA6B70>,<function functionImportanceB at 0x000001E5826511E0>,,,1.0,3.015316800000619,2.0,4.197844199999963,9.0,2.198148299999957,<function functiondiffB at 0x000001E581134400>,<function functiondiffC at 0x000001E581777598>,<function functiondiffA at 0x000001E581134A60>,,,,,2059.8286862000004,2091.0296465,None,2086.8132555,None,2092.9632255000006,None,24,001,2022_Jul_20_1012,2leo,2021.2.3,59.97677699196371,
3,43,Plan your dream house,Stimuli/43A1.jpg,Stimuli/43A2.jpg,Stimuli/43A3.jpg,Stimuli/43B1.jpg,Stimuli/43B2.jpg,Stimuli/43B3.jpg,Stimuli/43C1.jpg,Stimuli/43C2.jpg,Stimuli/43C3.jpg,,,,,0,33,33,43,,,,,,,,2094.6804574,None,2095.6795223999998,None,2101.6795504,None,"[-0.2, 0.346]","[-0.203, -0.347]","[0.399, -0.003]","[-0.377, 0.138]","[0.066, -0.395]","[0.306, 0.255]","[-0.378, -0.136]","[0.304, -0.26]","[0.07, 0.393]",,18.88188161999915,21.498707419998937,7.449454419998801,"[0.08703703703703704, -0.20185185185185187, 0.11574074074074074]","[0.3296296296296296, 0.3712962962962963, -0.3648148148148148]","[1, 1, 1]","[0, 0, 0]","[0, 0, 0]","[7.433072700000594, 18.86620149999999, 21.48268900000039]",0.015265719998751592,21.497716019998734,['A1'],['B2'],['C3'],['blue'],['yellow'],['salmon'],2124.7787184,None,6.0,2.1636704000002283,2124.7787184,None,2131.2120700000005,None,8.0,2.2986643000003824,2133.4952164000006,None,6.0,3.065141699999913,2126.9952928000002,None,7.0,4.16447320000043,<function functionImportanceC at 0x000001E582651400>,<function functionImportanceA at 0x000001E582651AE8>,<function functionImportanceB at 0x000001E582651A60>,,,8.0,2.2986643000003824,8.0,2.547562300000209,5.0,3.647305299999971,<function functiondiffA at 0x000001E581777048>,<function functiondiffC at 0x000001E581134C80>,<function functiondiffB at 0x000001E581777730>,,,,,2102.8101974,2140.2280898,None,2144.5114991,None,2136.5618509000005,None,24,001,2022_Jul_20_1012,2leo,2021.2.3,59.97677699196371,
3,31,Plan your order at a restaurant    ,Stimuli/31A1.jpg,Stimuli/31A2.jpg,Stimuli/31A3.jpg,Stimuli/31B1.jpg,Stimuli/31B2.jpg,Stimuli/31B3.jpg,Stimuli/31C1.jpg,Stimuli/31C2.jpg,Stimuli/31C3.jpg,,,,,0,34,34,31,,,,,,,,2146.5789781000003,None,2147.5782492999997,None,2153.5784352,None,"[-0.203, -0.347]","[-0.2, 0.346]","[0.399, -0.003]","[0.066, -0.395]","[-0.377, 0.138]","[0.306, 0.255]","[0.304, -0.26]","[-0.378, -0.136]","[0.07, 0.393]",,12.349331279998296,9.88265797999884,14.649561479998738,"[0.3435185185185185, 0.39166666666666666, 0.15462962962962962]","[0.26944444444444443, 0.022222222222222223, 0.3731481481481482]","[1, 1, 1]","[0, 0, 0]","[0, 0, 0]","[9.865636300000006, 12.332544300000336, 14.632288900000276]",0.016172979998373194,14.648273479998352,['A3'],['B3'],['C3'],['yellow'],['salmon'],['blue'],2171.2608415000004,None,8.0,2.580405400000018,2171.2608415000004,None,2175.2940939,None,3.0,4.413982700000815,2178.3438759,None,8.0,2.14863669999977,2180.5441289,None,6.0,2.6484519000005093,<function functionImportanceA at 0x000001E582651D90>,<function functionImportanceB at 0x000001E582651E18>,<function functionImportanceC at 0x000001E582651378>,,,2.0,4.413982700000815,2.0,4.064334699999563,2.0,4.147847100000035,<function functiondiffB at 0x000001E582651730>,<function functiondiffA at 0x000001E5826512F0>,<function functiondiffC at 0x000001E582651EA0>,,,,,2156.1617459999998,2191.3937777,None,2183.1439903,None,2187.5608553,None,24,001,2022_Jul_20_1012,2leo,2021.2.3,59.97677699196371,
3,33,Plan the items to decorate your Christmas tree,Stimuli/33A1.jpg,Stimuli/33A2.jpg,Stimuli/33A3.jpg,Stimuli/33B1.jpg,Stimuli/33B2.jpg,Stimuli/33B3.jpg,Stimuli/33C1.jpg,Stimuli/33C2.jpg,Stimuli/33C3.jpg,,,,,0,35,35,33,,,,,,,,2193.247402,None,2194.2603486,None,2200.2602822,None,"[-0.378, -0.136]","[0.304, -0.26]","[0.07, 0.393]","[-0.377, 0.138]","[0.066, -0.395]","[0.306, 0.255]","[-0.2, 0.346]","[-0.203, -0.347]","[0.399, -0.003]",,3.7601205799992385,9.377228279999144,16.777802679998786,"[-0.3333333333333333, 0.35]","[-0.16666666666666666, 0.21574074074074073]","[1, 1]","[0, 0]","[0, 0]","[3.758116699999846, 9.374725700000454]",0.0016008799984774669,16.776118579999093,['A1'],['B3'],['C1'],['salmon'],['yellow'],['blue'],2219.1929559,None,8.0,2.8295648000002984,2219.1929559,None,2222.6596607,None,6.0,7.880685699999958,2229.9758217999997,None,6.0,2.0317803999996613,2232.0593061,None,6.0,1.8150926999996955,<function functionImportanceA at 0x000001E582651B70>,<function functionImportanceB at 0x000001E582651950>,<function functionImportanceC at 0x000001E582651D08>,,,2.0,7.880685699999958,4.0,5.597561399999904,2.0,5.397863500000312,<function functiondiffB at 0x000001E582651F28>,<function functiondiffC at 0x000001E582651268>,<function functiondiffA at 0x000001E581777D90>,,,,,2201.9456904999997,2239.4602739,None,2233.8426126000004,None,2242.1421147,None,24,001,2022_Jul_20_1012,2leo,2021.2.3,59.97677699196371,
3,41,Plan how you want to have dinner tonight ,Stimuli/41A1.jpg,Stimuli/41A2.jpg,Stimuli/41A3.jpg,Stimuli/41B1.jpg,Stimuli/41B2.jpg,Stimuli/41B3.jpg,Stimuli/41C1.jpg,Stimuli/41C2.jpg,Stimuli/41C3.jpg,,,,,0,36,36,41,,,,,,,,2246.9435373000006,None,2247.9586983,None,2253.9589541000005,None,"[-0.377, 0.138]","[0.066, -0.395]","[0.306, 0.255]","[-0.2, 0.346]","[-0.203, -0.347]","[0.399, -0.003]","[-0.378, -0.136]","[0.304, -0.26]","[0.07, 0.393]",,2.5302339999998367,14.396802299999763,20.830137099999774,"[-0.375, -0.15925925925925927, 0.04814814814814815]","[0.16296296296296298, 0.3425925925925926, 0.36944444444444446]","[1, 1, 1]","[0, 0, 0]","[0, 0, 0]","[2.524959000000308, 14.391264000000774, 20.824157600000035]",0.004863699999987148,20.829007000000274,['A1'],['B1'],['C3'],['yellow'],['blue'],['salmon'],2276.5912500000004,None,8.0,6.080337000000327,2276.5912500000004,None,2286.4744569000004,None,8.0,4.364872899999682,2282.7425012000003,None,8.0,3.6812270000000353,2290.9911631000004,None,8.0,2.4147926999994525,<function functionImportanceB at 0x000001E5813ED730>,<function functionImportanceA at 0x000001E5813EDD08>,<function functionImportanceC at 0x000001E582651488>,,,4.0,4.364872899999682,7.0,2.9311970999997357,2.0,2.27976260000014,<function functiondiffC at 0x000001E5811342F0>,<function functiondiffA at 0x000001E581777B70>,<function functiondiffB at 0x000001E5826516A8>,,,,,2255.2834172000003,2293.2577538000005,None,2300.4575366999998,None,2298.1577285000003,None,24,001,2022_Jul_20_1012,2leo,2021.2.3,59.97677699196371,
3,15,Plan your own Pasta for lunch,Stimuli/15A1.jpg,Stimuli/15A2.jpg,Stimuli/15A3.jpg,Stimuli/15B1.jpg,Stimuli/15B2.jpg,Stimuli/15B3.jpg,Stimuli/15C1.jpg,Stimuli/15C2.jpg,Stimuli/15C3.jpg,,,,,0,37,37,15,,,,,,,,2302.9099568,None,2303.9239766,None,2309.923928,None,"[0.304, -0.26]","[-0.378, -0.136]","[0.07, 0.393]","[-0.203, -0.347]","[-0.2, 0.346]","[0.399, -0.003]","[0.066, -0.395]","[-0.377, 0.138]","[0.306, 0.255]",,12.140507099999013,8.175216599998748,9.240650999999161,"[-0.16111111111111112, -0.39351851851851855, 0.05]","[0.31574074074074077, 0.1398148148148148, 0.387037037037037]","[1, 1, 1]","[0, 0, 0]","[0, 0, 0]","[8.159093899999789, 9.224312800000007, 12.124541299999692]",0.01533719999861205,12.139580399999431,['A3'],['B2'],['C2'],['blue'],['salmon'],['yellow'],2324.4233783,None,9.0,1.7963705000001937,2324.4233783,None,2326.3735839,None,9.0,3.39816029999929,2329.6734453,None,9.0,3.398516600000221,2333.8232789000003,None,9.0,3.1317606000002343,<function functionImportanceA at 0x000001E582651620>,<function functionImportanceB at 0x000001E5813EDBF8>,<function functionImportanceC at 0x000001E582B338C8>,,,1.0,3.39816029999929,1.0,3.147862400000122,5.0,4.231622700000116,<function functiondiffB at 0x000001E582651048>,<function functiondiffC at 0x000001E581134488>,<function functiondiffA at 0x000001E582651C80>,,,,,2311.8283554,2339.5566237000003,None,2336.2397129,None,2341.3398112000004,None,24,001,2022_Jul_20_1012,2leo,2021.2.3,59.97677699196371,
3,34,Plan what car you want to buy,Stimuli/34A1.jpg,Stimuli/34A2.jpg,Stimuli/34A3.jpg,Stimuli/34B1.jpg,Stimuli/34B2.jpg,Stimuli/34B3.jpg,Stimuli/34C1.jpg,Stimuli/34C2.jpg,Stimuli/34C3.jpg,,,,,0,38,38,34,,,,,,,,2345.0914197,None,2346.1064624,None,2352.1063215000004,None,"[-0.377, 0.138]","[0.066, -0.395]","[0.306, 0.255]","[-0.2, 0.346]","[-0.203, -0.347]","[0.399, -0.003]","[-0.378, -0.136]","[0.304, -0.26]","[0.07, 0.393]",,15.99325829999816,18.460389899998518,20.494057399998383,"[-0.3333333333333333, -0.18611111111111112, 0.06296296296296296]","[0.14351851851851852, 0.3074074074074074, 0.34074074074074073]","[1, 1, 1]","[0, 0, 0]","[0, 0, 0]","[15.989932199999203, 18.45684209999945, 20.490060399999493]",0.0028794999980163993,20.492622099998698,['A1'],['B1'],['C3'],['salmon'],['yellow'],['blue'],2376.1388091,None,4.0,3.5301084000002447,2376.1388091,None,2385.0888076,None,7.0,3.4152956999996604,2380.6888089000004,None,5.0,4.347773399999824,2387.5551772,None,3.0,3.364930899999308,<function functionImportanceB at 0x000001E582B337B8>,<function functionImportanceA at 0x000001E582651510>,<function functionImportanceC at 0x000001E582B336A8>,,,9.0,3.4152956999996604,5.0,2.7646036999994976,9.0,3.081215600000178,<function functiondiffA at 0x000001E5826519D8>,<function functiondiffC at 0x000001E582B33268>,<function functiondiffB at 0x000001E5826518C8>,,,,,2355.1815848000006,2393.9881978000003,None,2397.1883871,None,2391.2385395,None,24,001,2022_Jul_20_1012,2leo,2021.2.3,59.97677699196371,
3,16,Plan a delicious cake for the birthday of a friend,Stimuli/16A1.jpg,Stimuli/16A2.jpg,Stimuli/16A3.jpg,Stimuli/16B1.jpg,Stimuli/16B2.jpg,Stimuli/16B3.jpg,Stimuli/16C1.jpg,Stimuli/16C2.jpg,Stimuli/16C3.jpg,,,,,0,39,39,16,,,,,,,,2399.2426459,None,2400.2547320000003,None,2406.2548978000004,None,"[-0.203, -0.347]","[0.399, -0.003]","[-0.2, 0.346]","[0.066, -0.395]","[0.306, 0.255]","[-0.377, 0.138]","[0.304, -0.26]","[0.07, 0.393]","[-0.378, -0.136]",,9.430292880000707,7.464482380000845,11.197410980000313,"[-0.39444444444444443, -0.21203703703703702, 0.11018518518518519]","[0.15092592592592594, -0.3435185185185185, 0.3685185185185185]","[1, 1, 1]","[0, 0, 0]","[0, 0, 0]","[7.458970700000464, 9.425262400000065, 11.191774300000361]",0.004631980000340263,11.196303380000245,['A1'],['B3'],['C2'],['yellow'],['blue'],['salmon'],2419.3542356,None,7.0,2.430634700000155,2419.3542356,None,2430.0372533,None,5.0,2.115155199999208,2422.0877222,None,5.0,8.147919099999854,2432.2209717000005,None,7.0,2.632052200000544,<function functionImportanceB at 0x000001E582B33048>,<function functionImportanceA at 0x000001E582B33AE8>,<function functionImportanceC at 0x000001E582B332F0>,,,1.0,2.115155199999208,4.0,2.1813262000005125,3.0,1.6129958000001352,<function functiondiffC at 0x000001E582B330D0>,<function functiondiffB at 0x000001E582B33D90>,<function functiondiffA at 0x000001E581777EA0>,,,,,2407.6779566000005,2434.7873986000004,None,2438.5373187000005,None,2440.7040782000004,None,24,001,2022_Jul_20_1012,2leo,2021.2.3,59.97677699196371,
3,38,Plan how you want to go for a run,Stimuli/38A1.jpg,Stimuli/38A2.jpg,Stimuli/38A3.jpg,Stimuli/38B1.jpg,Stimuli/38B2.jpg,Stimuli/38B3.jpg,Stimuli/38C1.jpg,Stimuli/38C2.jpg,Stimuli/38C3.jpg,,,,,0,40,40,38,,,,,,,,2441.8394031,None,2442.8537643,None,2448.8537421,None,"[0.306, 0.255]","[0.066, -0.395]","[-0.377, 0.138]","[0.399, -0.003]","[-0.203, -0.347]","[-0.2, 0.346]","[0.07, 0.393]","[0.304, -0.26]","[-0.378, -0.136]",,12.389144059999126,8.98945165999885,7.356187059999684,"[0.06481481481481481, 0.40555555555555556, 0.06666666666666667]","[0.33796296296296297, 0.022222222222222223, -0.38333333333333336]","[1, 1, 1]","[0, 0, 0]","[0, 0, 0]","[7.353242099999989, 8.986795299999358, 12.38663219999944]",0.0019025599995075027,12.388453059998938,['A2'],['B1'],['C1'],['salmon'],['yellow'],['blue'],2462.9199150000004,None,7.0,2.364737900000364,2462.9199150000004,None,2471.7196534000004,None,7.0,2.1485868999998274,2469.6367775999997,None,8.0,2.065446999999949,2465.419863,None,5.0,4.265051600000334,<function functionImportanceC at 0x000001E581D87158>,<function functionImportanceB at 0x000001E582B33598>,<function functionImportanceA at 0x000001E582B33C80>,,,3.0,2.1485868999998274,1.0,2.964645300000484,3.0,3.030775299999732,<function functiondiffC at 0x000001E582B33E18>,<function functiondiffA at 0x000001E582651BF8>,<function functiondiffB at 0x000001E582B33840>,,,,,2450.0492507999998,2473.8696388,None,2479.7529734,None,2476.7029269000004,None,24,001,2022_Jul_20_1012,2leo,2021.2.3,59.97677699196371,
3,35,Plan how you want to do your grocery shopping ,Stimuli/35A1.jpg,Stimuli/35A2.jpg,Stimuli/35A3.jpg,Stimuli/35B1.jpg,Stimuli/35B2.jpg,Stimuli/35B3.jpg,Stimuli/35C1.jpg,Stimuli/35C2.jpg,Stimuli/35C3.jpg,,,,,0,41,41,35,,,,,,,,2482.2384271,None,2483.2525691,None,2489.2527349,None,"[-0.203, -0.347]","[0.399, -0.003]","[-0.2, 0.346]","[0.066, -0.395]","[0.306, 0.255]","[-0.377, 0.138]","[0.304, -0.26]","[0.07, 0.393]","[-0.378, -0.136]",,19.167460839999876,10.051467039999807,5.3354746400000295,"[-0.38055555555555554, 0.06759259259259259, -0.15462962962962962]","[-0.08333333333333333, -0.34629629629629627, -0.3111111111111111]","[1, 1, 1]","[0, 0, 0]","[0, 0, 0]","[5.326540600000044, 10.042975599999409, 19.15924769999947]",0.007791940000061004,19.166975340000135,['A1'],['B1'],['C3'],['blue'],['salmon'],['yellow'],2510.1019686,None,5.0,3.580365400000119,2510.1019686,None,2524.2015068,None,6.0,2.398431399999936,2513.8186760999997,None,7.0,4.097837199999958,2517.8686294999998,None,4.0,6.298220599999695,<function functionImportanceB at 0x000001E581D87048>,<function functionImportanceC at 0x000001E581D87730>,<function functionImportanceA at 0x000001E5811341E0>,,,2.0,2.398431399999936,9.0,4.1646119000006365,3.0,3.1478016999999454,<function functiondiffA at 0x000001E582B33400>,<function functiondiffC at 0x000001E581D87EA0>,<function functiondiffB at 0x000001E582B33730>,,,,,2490.4604405,2529.7350197000005,None,2532.6681331,None,2526.5682566000005,None,24,001,2022_Jul_20_1012,2leo,2021.2.3,59.97677699196371,
3,9,Plan a picnic with friends,Stimuli/9A1.jpg,Stimuli/9A2.jpg,Stimuli/9A3.jpg,Stimuli/9B1.jpg,Stimuli/9B2.jpg,Stimuli/9B3.jpg,Stimuli/9C1.jpg,Stimuli/9C2.jpg,Stimuli/9C3.jpg,,,,,0,42,42,9,,,,,,,,2536.3371374,None,2537.3513881999997,None,2543.3513821000006,None,"[-0.2, 0.346]","[0.399, -0.003]","[-0.203, -0.347]","[-0.378, -0.136]","[0.07, 0.393]","[0.304, -0.26]","[-0.377, 0.138]","[0.306, 0.255]","[0.066, -0.395]",,7.267616239993913,9.717851039994457,5.551749939993897,"[0.08796296296296297, -0.2037037037037037, -0.3287037037037037]","[-0.3416666666666667, 0.3296296296296296, -0.06296296296296296]","[1, 1, 1]","[0, 0, 0]","[0, 0, 0]","[5.539349499999844, 7.255899800000407, 9.705848700000388]",0.011311039994325256,9.716920139994727,['A1'],['B1'],['C3'],['blue'],['yellow'],['salmon'],2558.8672316,None,9.0,7.0802905000000464,2558.8672316,None,2572.9172438000005,None,5.0,3.448476600000504,2576.2004081000005,None,7.0,3.581695099999706,2567.467248,None,5.0,5.397717200000443,<function functionImportanceC at 0x000001E581D876A8>,<function functionImportanceA at 0x000001E581D87950>,<function functionImportanceB at 0x000001E581D87BF8>,,,3.0,3.448476600000504,3.0,6.380960200000118,2.0,7.214299600000231,<function functiondiffB at 0x000001E582B33950>,<function functiondiffA at 0x000001E5826510D0>,<function functiondiffC at 0x000001E581D87D90>,,,,,2548.6959794000004,2592.5499846000002,None,2578.8335832000002,None,2585.3501742,None,24,001,2022_Jul_20_1012,2leo,2021.2.3,59.97677699196371,
3,2,Plan which ingredients you want to use for cooking dinner today,Stimuli/2A1.jpg,Stimuli/2A2.jpg,Stimuli/2A3.jpg,Stimuli/2B1.jpg,Stimuli/2B2.jpg,Stimuli/2B3.jpg,Stimuli/2C1.jpg,Stimuli/2C2.jpg,Stimuli/2C3.jpg,,,,,0,43,43,2,,,,,,,,2598.9691426,None,2599.982905,None,2605.982903,None,"[0.07, 0.393]","[0.304, -0.26]","[-0.378, -0.136]","[0.399, -0.003]","[-0.203, -0.347]","[-0.2, 0.346]","[0.306, 0.255]","[0.066, -0.395]","[-0.377, 0.138]",,10.244678859992746,11.128171559992552,7.111768159992607,"[0.08055555555555556, -0.3055555555555556, -0.19814814814814816]","[-0.33055555555555555, -0.1537037037037037, 0.3888888888888889]","[1, 1, 1]","[0, 0, 0]","[0, 0, 0]","[7.1067597000001115, 10.240062599999874, 11.123267099999794]",0.003997859992523445,11.127197459993113,['A3'],['B3'],['C2'],['blue'],['salmon'],['yellow'],2623.7321457,None,7.0,2.363410400000248,2623.7321457,None,2639.0675164000004,None,5.0,3.8483777000001282,2629.4657094000004,None,5.0,7.697584499999721,2634.5492381000004,None,8.0,3.9816628999997192,<function functionImportanceB at 0x000001E581D87598>,<function functionImportanceC at 0x000001E581D87D08>,<function functionImportanceA at 0x000001E581D87B70>,,,0.0,3.8483777000001282,2.0,4.980243500000142,7.0,4.8494110999999975,<function functiondiffB at 0x000001E582B33510>,<function functiondiffC at 0x000001E581D87C80>,<function functiondiffA at 0x000001E582B33D08>,,,,,2612.1432022,2646.8816779,None,2642.5485599000003,None,2651.0817968,None,24,001,2022_Jul_20_1012,2leo,2021.2.3,59.97677699196371,
3,21,Plan your sandwich for lunch,Stimuli/21A1.jpg,Stimuli/21A2.jpg,Stimuli/21A3.jpg,Stimuli/21B1.jpg,Stimuli/21B2.jpg,Stimuli/21B3.jpg,Stimuli/21C1.jpg,Stimuli/21C2.jpg,Stimuli/21C3.jpg,,,,,0,44,44,21,,,,,,,,2655.1513339000003,None,2656.1648059,None,2662.1649638,None,"[-0.2, 0.346]","[0.399, -0.003]","[-0.203, -0.347]","[-0.378, -0.136]","[0.07, 0.393]","[0.304, -0.26]","[-0.377, 0.138]","[0.306, 0.255]","[0.066, -0.395]",,2.9142692799987344,6.998190179998346,5.6494333799983,"[-0.17037037037037037, 0.33611111111111114, 0.06851851851851852]","[0.38981481481481484, 0.26666666666666666, 0.4305555555555556]","[1, 1, 1]","[0, 0, 0]","[0, 0, 0]","[2.8993319999999585, 5.649184500000047, 6.982907999999952]",0.014514579998831323,6.997161079998477,['A1'],['B2'],['C2'],['yellow'],['salmon'],['blue'],2670.7977640999998,None,9.0,2.729873199999929,2670.7977640999998,None,2677.7143812000004,None,8.0,2.031761799999913,2679.7977046000005,None,4.0,3.2983659000001353,2673.6143836,None,8.0,4.064238599999953,<function functionImportanceC at 0x000001E581D87840>,<function functionImportanceA at 0x000001E581D87620>,<function functionImportanceB at 0x000001E581D87268>,,,2.0,2.031761799999913,1.0,6.564611900000273,1.0,3.6145182999998724,<function functiondiffC at 0x000001E5820BB840>,<function functiondiffA at 0x000001E581D877B8>,<function functiondiffB at 0x000001E581D879D8>,,,,,2663.3302409,2683.0142408,None,2690.0807110000005,None,2686.447241,None,24,001,2022_Jul_20_1012,2leo,2021.2.3,59.97677699196371,
