Condition,N_Scenario,written_scenario,ImageA1,ImageA2,ImageA3,ImageB1,ImageB2,ImageB3,ImageC1,ImageC2,ImageC3,trials_2.thisRepN,trials_2.thisTrialN,trials_2.thisN,trials_2.thisIndex,trial.thisRepN,trial.thisTrialN,trial.thisN,trial.thisIndex,button_2.started,button_2.stopped,button_2.numClicks,button_2.timesOn,button_2.timesOff,text.started,text.stopped,fixationcross1_started,fixationcross1_stopped,Scenario_started,Scenario_stopped,fixationcross2_started,fixationcross2_stopped,A1pos,A2pos,A3pos,B1pos,B2pos,B3pos,C1pos,C2pos,C3pos,﻿Imagesdecision_started,decisiontimeA,decisiontimeB,decisiontimeC,mouse_x,mouse_y,mouse_leftButton,mouse_midButton,mouse_rightButton,mouse_time,mouse_started,mouse_stopped,clicked_optionA,clicked_optionB,clicked_optionC,colour_category_A,colour_category_B,colour_category_C,question_confidence_started,question_confidence_stopped,slider_confidence_response,slider_confidence_rt,slider_confidence_started,slider_confidence_stopped,question_valueC_started,question_valueC_stopped,slider_valueC_response,slider_valueC_rt,question_valueA_started,question_valueA_stopped,slider_valueA_response,slider_valueA_rt,question_valueB_started,question_valueB_stopped,slider_valueB_response,slider_valueB_rt,Importance_First,Importance_Second,Importance_Third,question_diff_started,question_diff_stopped,slider_diffC_response,slider_diffC_rt,slider_diffB_response,slider_diffB_rt,slider_diffA_response,slider_diffA_rt,diff_First,diff_Second,diff_Third,button_3_started,button_3_stopped,text_2_started,text_2_stopped,Imagesdecision_started,question_diffC_started,question_diffC_stopped,question_diffB_started,question_diffB_stopped,question_diffA_started,question_diffA_stopped,participant,session,date,expName,psychopyVersion,frameRate,
3,2,Plan a party to celebrate your birthday,Stimuli/2A1t.jpg,Stimuli/2A2t.jpg,Stimuli/2A3t.jpg,Stimuli/2B1t.jpg,Stimuli/2B2t.jpg,Stimuli/2B3t.jpg,Stimuli/2C1t.jpg,Stimuli/2C2t.jpg,Stimuli/2C3t.jpg,0,0,0,0,,,,,23.086632300008205,None,1,[2.4021126000006916],[2.402115999997477],23.086632300008205,None,56.33411770001112,None,57.343780700000934,None,63.343618400002015,None,"[0.07, 0.393]","[0.304, -0.26]","[-0.378, -0.136]","[0.399, -0.003]","[-0.203, -0.347]","[-0.2, 0.346]","[0.306, 0.255]","[0.066, -0.395]","[-0.377, 0.138]",67.32686400000239,4.161061650185729,3.527760750192101,2.612703450184199,"[0.27870370370370373, 0.32592592592592595, 0.3148148148148148]","[0.2916666666666667, 0.07314814814814814, -0.2361111111111111]","[1, 1, 1]","[0, 0, 0]","[0, 0, 0]","[2.5998205999931088, 3.5151115999906324, 4.148593699996127]",0.011940850192331709,4.993584050185746,['A2'],['B1'],['C1'],['yellow'],['blue'],['salmon'],72.77647280000383,None,10.0,1.7154941000044346,72.77647280000383,None,74.56126840000798,None,10.0,2.731341799997608,78.58189729999867,None,10.0,3.381753800000297,82.25976749999973,None,10.0,2.998389899992617,<function functionImportanceCt at 0x0000025819C01A60>,<function functionImportanceAt at 0x00000258102C4268>,<function functionImportanceBt at 0x000002580CB11E18>,88.4761381999997,None,10.0,1.98118109999632,10.0,2.3150775999965845,10.0,3.381753800000297,<function functiondiffCt at 0x0000025819BA6048>,<function functiondiffBt at 0x000002581A073C80>,<function functiondiffAt at 0x000002581A073D08>,,,,,,,,,,,,30,001,2022_Jul_21_1117,2leo,2021.2.3,60.00553250681822,
3,3,Plan one week of vacation,Stimuli/3A1t.jpg,Stimuli/3A2t.jpg,Stimuli/3A3t.jpg,Stimuli/3B1t.jpg,Stimuli/3B2t.jpg,Stimuli/3B3t.jpg,Stimuli/3C1t.jpg,Stimuli/3C2t.jpg,Stimuli/3C3t.jpg,0,1,1,1,,,,,,,,,,,,90.25957490000292,None,91.25947109999834,None,97.25954890000867,None,"[-0.2, 0.346]","[0.399, -0.003]","[-0.203, -0.347]","[-0.378, -0.136]","[0.07, 0.393]","[0.304, -0.26]","[-0.377, 0.138]","[0.306, 0.255]","[0.066, -0.395]",103.32618119999825,1.5148983503313502,2.498524950337014,3.3488682503375458,"[0.4425925925925926, 0.37777777777777777, 0.14629629629629629]","[0.009259259259259259, -0.17314814814814813, -0.32222222222222224]","[1, 1, 1]","[0, 0, 0]","[0, 0, 0]","[1.498306199995568, 2.4816133999993326, 3.3316875000018626]",0.016079950335551985,4.997325450342032,['A2'],['B3'],['C3'],['salmon'],['blue'],['yellow'],108.775426600012,None,10.0,2.015165300006629,108.775426600012,None,116.5919842000003,None,10.0,3.5484081000031438,112.75898779999989,None,10.0,4.281357100000605,120.45872180000879,None,10.0,3.798579199996311,<function functionImportanceAt at 0x0000025819C016A8>,<function functionImportanceCt at 0x000002587F9931E0>,<function functionImportanceBt at 0x0000025819C01E18>,127.74187410000013,None,10.0,2.6148525000025984,10.0,2.2144755000044825,10.0,4.281357100000605,<function functiondiffAt at 0x000002581A073E18>,<function functiondiffBt at 0x000002581A073BF8>,<function functiondiffCt at 0x000002581A073EA0>,,,,,,,,,,,,30,001,2022_Jul_21_1117,2leo,2021.2.3,60.00553250681822,
3,35,Plan how you want to do your grocery shopping ,Stimuli/35A1.jpg,Stimuli/35A2.jpg,Stimuli/35A3.jpg,Stimuli/35B1.jpg,Stimuli/35B2.jpg,Stimuli/35B3.jpg,Stimuli/35C1.jpg,Stimuli/35C2.jpg,Stimuli/35C3.jpg,,,,,0,0,0,35,,,,,,,,145.52295700000832,None,146.50805499999842,None,152.5081050000008,None,"[-0.203, -0.347]","[0.399, -0.003]","[-0.2, 0.346]","[0.304, -0.26]","[0.07, 0.393]","[-0.378, -0.136]","[0.066, -0.395]","[0.306, 0.255]","[-0.377, 0.138]",,12.052652950005722,9.436104050007998,12.719907350008725,"[0.3425925925925926, -0.15925925925925927, -0.31296296296296294]","[-0.21296296296296297, 0.3435185185185185, 0.20555555555555555]","[1, 1, 1]","[0, 0, 0]","[0, 0, 0]","[9.424353499998688, 12.040978700009873, 12.707734399999026]",0.01095575001090765,12.718511750004836,['A3'],['B1'],['C3'],['yellow'],['blue'],['salmon'],166.97395700000925,None,8.0,5.145707499992568,166.97395700000925,None,194.87334590000683,None,10.0,6.8315546000085305,172.25973190000514,None,10.0,15.964049599991995,188.27365360000113,None,10.0,6.664776299992809,<function functionImportanceA at 0x0000025819C01D08>,<function functionImportanceB at 0x000002581A073F28>,<function functionImportanceC at 0x0000025819BA61E0>,,,10.0,15.964049599991995,0.0,6.830866600008449,-0.0,4.481040700004087,<function functiondiffC at 0x000002581A0730D0>,<function functiondiffB at 0x000002581A0736A8>,<function functiondiffA at 0x000002581A073510>,129.4587032999989,None,129.4587032999989,None,153.78314320000936,201.65669250000792,None,207.72323490001145,None,214.55635680000705,None,30,001,2022_Jul_21_1117,2leo,2021.2.3,60.00553250681822,
3,17,Plan a day in Barcelona with a friend who is new to the city,Stimuli/17A1.jpg,Stimuli/17A2.jpg,Stimuli/17A3.jpg,Stimuli/17B1.jpg,Stimuli/17B2.jpg,Stimuli/17B3.jpg,Stimuli/17C1.jpg,Stimuli/17C2.jpg,Stimuli/17C3.jpg,,,,,0,1,1,17,,,,,,,,218.5560417000088,None,219.5560933000088,None,225.5560289999994,None,"[0.07, 0.393]","[0.304, -0.26]","[-0.378, -0.136]","[0.306, 0.255]","[0.066, -0.395]","[-0.377, 0.138]","[0.399, -0.003]","[-0.203, -0.347]","[-0.2, 0.346]",,19.74134375002177,5.491696950019104,7.475378050017753,"[0.34814814814814815, -0.20092592592592592, 0.38981481481481484, 0.38981481481481484, 0.38981481481481484, 0.38981481481481484, -0.25555555555555554, -0.2962962962962963]","[0.2712962962962963, -0.2851851851851852, -0.025, 0.004629629629629629, 0.005555555555555556, 0.006481481481481481, 0.38333333333333336, -0.075]","[1, 1, 1, 1, 1, 1, 1, 1]","[0, 0, 0, 0, 0, 0, 0, 0]","[0, 0, 0, 0, 0, 0, 0, 0]","[5.485925400003907, 7.469252299997606, 11.252534600003855, 12.785911899991333, 12.952745100003085, 13.135793399997056, 14.73580629999924, 19.735630299997865]",0.005048150022048503,19.740633250024985,['A3'],['B1'],['C2'],['salmon'],['yellow'],['blue'],246.95527850001235,None,10.0,4.2306325000099605,246.95527850001235,None,255.4549842000124,None,10.0,3.41487569999299,251.28867230001197,None,-0.0,4.180862699999125,258.88850270000694,None,10.0,3.2316865000029793,<function functionImportanceA at 0x0000025819AC0EA0>,<function functionImportanceC at 0x000002581A0731E0>,<function functionImportanceB at 0x000002581A073730>,,,0.0,4.180862699999125,-0.0,3.2473532000003615,0.0,8.614670099996147,<function functiondiffB at 0x000002581A0732F0>,<function functiondiffC at 0x0000025819BA6EA0>,<function functiondiffA at 0x000002581A073488>,,,,,226.73438790001092,265.3549789000099,None,262.1050308999984,None,274.80466900000465,None,30,001,2022_Jul_21_1117,2leo,2021.2.3,60.00553250681822,
3,1,Plan how to study for an exam,Stimuli/1A1.jpg,Stimuli/1A2.jpg,Stimuli/1A3.jpg,Stimuli/1B1.jpg,Stimuli/1B2.jpg,Stimuli/1B3.jpg,Stimuli/1C1.jpg,Stimuli/1C2.jpg,Stimuli/1C3.jpg,,,,,0,2,2,1,,,,,,,,282.93738680001115,None,283.93763610000315,None,289.9377577999985,None,"[-0.378, -0.136]","[0.304, -0.26]","[0.07, 0.393]","[-0.377, 0.138]","[0.066, -0.395]","[0.306, 0.255]","[-0.2, 0.346]","[-0.203, -0.347]","[0.399, -0.003]",,6.661151300009806,11.212927700020373,10.311421900012647,"[0.2851851851851852, 0.31851851851851853, 0.30833333333333335]","[-0.20092592592592592, 0.001851851851851852, 0.2101851851851852]","[1, 1, 1]","[0, 0, 0]","[0, 0, 0]","[6.6462310000060825, 10.295889700006228, 11.197634300013306]",0.014413500015507452,11.21020880001015,['A2'],['B3'],['C3'],['blue'],['salmon'],['yellow'],302.7535907999991,None,10.0,2.4455140000063693,302.7535907999991,None,313.6202496000042,None,10.0,3.914949300000444,317.5868355999992,None,10.0,6.481774300002144,305.2538973000046,None,10.0,8.380936700006714,<function functionImportanceB at 0x0000025819BA68C8>,<function functionImportanceC at 0x0000025819BA62F0>,<function functionImportanceA at 0x0000025819BA6AE8>,,,-0.0,6.481774300002144,-0.0,2.481287799993879,-0.0,2.0146356000041123,<function functiondiffC at 0x0000025811745E18>,<function functiondiffA at 0x0000025819E759D8>,<function functiondiffB at 0x00000258193A2F28>,,,,,291.0557606000075,324.03687180001,None,329.98675780001213,None,327.969951600011,None,30,001,2022_Jul_21_1117,2leo,2021.2.3,60.00553250681822,
3,31,Plan your order at a restaurant    ,Stimuli/31A1.jpg,Stimuli/31A2.jpg,Stimuli/31A3.jpg,Stimuli/31B1.jpg,Stimuli/31B2.jpg,Stimuli/31B3.jpg,Stimuli/31C1.jpg,Stimuli/31C2.jpg,Stimuli/31C3.jpg,,,,,0,3,3,31,,,,,,,,332.00299940000696,None,333.0033115000115,None,339.0030189000099,None,"[0.066, -0.395]","[0.306, 0.255]","[-0.377, 0.138]","[0.304, -0.26]","[0.07, 0.393]","[-0.378, -0.136]","[-0.203, -0.347]","[0.399, -0.003]","[-0.2, 0.346]",,20.956894900111365,32.65719690010883,24.974033000107738,"[-0.4212962962962963, 0.36666666666666664, 0.11388888888888889]","[0.17407407407407408, 0.026851851851851852, 0.48055555555555557]","[1, 1, 1]","[0, 0, 0]","[0, 0, 0]","[20.944492299997364, 24.961246200007736, 32.64464230000158]",0.011788900097599253,32.65619180010981,['A3'],['B2'],['C2'],['salmon'],['yellow'],['blue'],374.73532050001086,None,10.0,9.43007220000436,374.73532050001086,None,384.26836130001175,None,-0.0,7.597802300006151,395.9349782000063,None,10.0,6.0985783000069205,391.85156320000533,None,10.0,2.6650941999978386,<function functionImportanceC at 0x0000025819BA6730>,<function functionImportanceB at 0x0000025819BA6BF8>,<function functionImportanceA at 0x0000025819BA6F28>,,,-0.0,6.0985783000069205,-0.0,5.04779550000967,3.0,10.081031099995016,<function functiondiffC at 0x0000025819BA6E18>,<function functiondiffA at 0x000002581A073AE8>,<function functiondiffB at 0x000002581A073620>,,,,,341.62206660000084,400.61809010000434,None,414.4843331000011,None,404.7347596000036,None,30,001,2022_Jul_21_1117,2leo,2021.2.3,60.00553250681822,
3,4,Plan a game night at your place,Stimuli/4A1.jpg,Stimuli/4A2.jpg,Stimuli/4A3.jpg,Stimuli/4B1.jpg,Stimuli/4B2.jpg,Stimuli/4B3.jpg,Stimuli/4C1.jpg,Stimuli/4C2.jpg,Stimuli/4C3.jpg,,,,,0,4,4,4,,,,,,,,419.0506705000007,None,420.05080799999996,None,426.05088570000953,None,"[-0.203, -0.347]","[0.399, -0.003]","[-0.2, 0.346]","[0.304, -0.26]","[0.07, 0.393]","[-0.378, -0.136]","[0.066, -0.395]","[0.306, 0.255]","[-0.377, 0.138]",,11.058602700155461,12.923742500148364,24.57381920015905,"[-0.24074074074074073, -0.36203703703703705, 0.2490740740740741]","[0.33796296296296297, -0.15648148148148147, 0.21203703703703702]","[1, 1, 1]","[0, 0, 0]","[0, 0, 0]","[11.042099700003746, 12.906958300009137, 24.556830700006685]",0.015907200155197643,24.572693100155448,['A3'],['B3'],['C2'],['blue'],['yellow'],['salmon'],454.5666529000009,None,3.0,4.0136002999934135,454.5666529000009,None,459.96657920000143,None,10.0,6.647709800003213,470.133908600008,None,4.0,5.981482599992887,465.28286360000493,None,10.0,3.76506919998792,<function functionImportanceC at 0x0000025819BA6C80>,<function functionImportanceB at 0x0000025819BA6A60>,<function functionImportanceA at 0x0000025819BA6598>,,,10.0,5.981482599992887,3.0,6.447567300012452,2.0,13.84778229999938,<function functiondiffA at 0x0000025819BA6488>,<function functiondiffC at 0x000002581A073D90>,<function functiondiffB at 0x0000025819BA69D8>,,,,,429.54335980000906,489.2990056999988,None,493.21565450000344,None,475.3993625000003,None,30,001,2022_Jul_21_1117,2leo,2021.2.3,60.00553250681822,
3,8,Plan the interior of your living-room ,Stimuli/8A1.jpg,Stimuli/8A2.jpg,Stimuli/8A3.jpg,Stimuli/8B1.jpg,Stimuli/8B2.jpg,Stimuli/8B3.jpg,Stimuli/8C1.jpg,Stimuli/8C2.jpg,Stimuli/8C3.jpg,,,,,0,5,5,8,,,,,,,,499.1817676000064,None,500.1821390000114,None,506.18205920000037,None,"[0.304, -0.26]","[0.07, 0.393]","[-0.378, -0.136]","[-0.203, -0.347]","[0.399, -0.003]","[-0.2, 0.346]","[0.066, -0.395]","[0.306, 0.255]","[-0.377, 0.138]",,27.273415600240696,10.090561500241165,19.390667400250095,"[-0.21203703703703702, -0.30925925925925923, -0.325]","[0.3416666666666667, 0.1648148148148148, -0.175]","[1, 1, 1]","[0, 0, 0]","[0, 0, 0]","[10.07513189999736, 19.37500159999763, 27.258231500003603]",0.014556400245055556,27.272523000239744,['A3'],['B3'],['C3'],['salmon'],['blue'],['yellow'],538.7809138000011,None,8.0,3.446767199988244,538.7809138000011,None,551.9806550000067,None,10.0,7.497954499995103,557.5138780999987,None,8.0,3.2650733000045875,544.0644558000058,None,10.0,7.664445199989132,<function functionImportanceB at 0x000002581BEDC1E0>,<function functionImportanceC at 0x000002581BEDC488>,<function functionImportanceA at 0x0000025819BA66A8>,,,2.0,3.2650733000045875,0.0,5.41439239999454,5.0,3.0648325999936787,<function functiondiffB at 0x0000025819BA6D08>,<function functiondiffA at 0x0000025819BA6D90>,<function functiondiffC at 0x000002581A073598>,,,,,511.05522370000836,569.8470297000022,None,561.2972378000122,None,566.1805147999985,None,30,001,2022_Jul_21_1117,2leo,2021.2.3,60.00553250681822,
3,25,Plan how you want to read a book in your free time ,Stimuli/25A1.jpg,Stimuli/25A2.jpg,Stimuli/25A3.jpg,Stimuli/25B1.jpg,Stimuli/25B2.jpg,Stimuli/25B3.jpg,Stimuli/25C1.jpg,Stimuli/25C2.jpg,Stimuli/25C3.jpg,,,,,0,6,6,25,,,,,,,,587.846103200005,None,588.8466398000019,None,594.846380300005,None,"[0.066, -0.395]","[0.306, 0.255]","[-0.377, 0.138]","[-0.203, -0.347]","[0.399, -0.003]","[-0.2, 0.346]","[0.304, -0.26]","[0.07, 0.393]","[-0.378, -0.136]",,40.986322100041434,18.103993600030662,25.503876600036165,"[-0.13425925925925927, 0.337037037037037, 0.07222222222222222]","[0.35833333333333334, -0.2814814814814815, -0.3861111111111111]","[1, 1, 1]","[0, 0, 0]","[0, 0, 0]","[18.090253400005167, 25.490068099999917, 40.9730389000033]",0.012831700034439564,40.98572580004111,['A1'],['B3'],['C1'],['blue'],['salmon'],['yellow'],637.8283639000001,None,9.0,6.463273200002732,637.8283639000001,None,653.1280502000009,None,10.0,2.7149398000037763,644.3615865000029,None,9.0,8.380541500009713,655.5612840000103,None,10.0,4.098451600002591,<function functionImportanceA at 0x000002581BEDC268>,<function functionImportanceC at 0x000002581BEDC6A8>,<function functionImportanceB at 0x000002581BEDC840>,,,-0.0,8.380541500009713,3.0,15.330719300007331,2.0,4.0479749999940395,<function functiondiffA at 0x000002581BEDC8C8>,<function functiondiffC at 0x000002581BEDCBF8>,<function functiondiffB at 0x000002581BEDCB70>,,,,,596.3833955000009,663.7278342000063,None,669.4777796000126,None,659.5778621000063,None,30,001,2022_Jul_21_1117,2leo,2021.2.3,60.00553250681822,
3,15,Plan your own Pasta for lunch,Stimuli/15A1.jpg,Stimuli/15A2.jpg,Stimuli/15A3.jpg,Stimuli/15B1.jpg,Stimuli/15B2.jpg,Stimuli/15B3.jpg,Stimuli/15C1.jpg,Stimuli/15C2.jpg,Stimuli/15C3.jpg,,,,,0,7,7,15,,,,,,,,684.3102467999997,None,685.3106258000043,None,691.3106460999988,None,"[0.306, 0.255]","[-0.377, 0.138]","[0.066, -0.395]","[0.07, 0.393]","[-0.378, -0.136]","[0.304, -0.26]","[0.399, -0.003]","[-0.2, 0.346]","[-0.203, -0.347]",,8.792632550073904,13.947758050067932,18.909711050073383,"[0.29259259259259257, -0.3111111111111111, -0.13148148148148148]","[0.23796296296296296, -0.09722222222222222, -0.27037037037037037]","[1, 1, 1]","[0, 0, 0]","[0, 0, 0]","[8.782864700013306, 13.937725400013733, 18.89921360000153]",0.009288750065024942,18.908484350060462,['A1'],['B2'],['C3'],['yellow'],['blue'],['salmon'],712.6098275000113,None,9.0,6.1799828999937745,712.6098275000113,None,723.2763864000008,None,10.0,3.1814821000007214,718.9265054999996,None,2.0,3.680866700000479,725.7426848000032,None,3.0,5.181772199997795,<function functionImportanceA at 0x000002581BEDCC80>,<function functionImportanceC at 0x000002581BEDCD08>,<function functionImportanceB at 0x000002581BEDCA60>,,,0.0,3.680866700000479,2.0,5.014390200012713,10.0,6.71413659999962,<function functiondiffC at 0x0000025819BA6B70>,<function functiondiffA at 0x000002581A073840>,<function functiondiffB at 0x000002581BEDC7B8>,,,,,693.2423496999982,731.0760852000094,None,742.0592157000065,None,735.3260597000044,None,30,001,2022_Jul_21_1117,2leo,2021.2.3,60.00553250681822,
3,32,Plan how you want to relax after a workday,Stimuli/32A1.jpg,Stimuli/32A2.jpg,Stimuli/32A3.jpg,Stimuli/32B1.jpg,Stimuli/32B2.jpg,Stimuli/32B3.jpg,Stimuli/32C1.jpg,Stimuli/32C2.jpg,Stimuli/32C3.jpg,,,,,0,8,8,32,,,,,,,,746.5919640000066,None,747.5924111000058,None,753.5923386000068,None,"[0.399, -0.003]","[-0.203, -0.347]","[-0.2, 0.346]","[0.306, 0.255]","[0.066, -0.395]","[-0.377, 0.138]","[0.07, 0.393]","[0.304, -0.26]","[-0.378, -0.136]",,22.96105790011643,29.87783990011667,35.361310200125445,"[0.35185185185185186, -0.325, 0.36574074074074076]","[0.05185185185185185, 0.1824074074074074, -0.26666666666666666]","[1, 1, 1]","[0, 0, 0]","[0, 0, 0]","[22.953186099999584, 29.86954849999165, 35.352844499997445]",0.007454900129232556,35.3601234001253,['A1'],['B3'],['C2'],['blue'],['yellow'],['salmon'],792.4411704000086,None,9.0,8.06293580000056,792.4411704000086,None,815.29121760001,None,10.0,2.6151350000000093,801.6577394000051,None,9.0,14.680810299993027,818.6738676000095,None,0.0,7.9483259999979055,<function functionImportanceA at 0x0000025819BA67B8>,<function functionImportanceC at 0x000002581BEDCD90>,<function functionImportanceB at 0x000002581BEDC0D0>,,,1.0,14.680810299993027,3.0,3.9809843999973964,6.0,4.031016799999634,<function functiondiffB at 0x000002581BEDC730>,<function functiondiffA at 0x0000025819BA6158>,<function functiondiffC at 0x000002581BEDCE18>,,,,,756.6199393999996,833.8902054000064,None,826.0234005000093,None,830.1899679000053,None,30,001,2022_Jul_21_1117,2leo,2021.2.3,60.00553250681822,
3,43,Plan your dream house,Stimuli/43A1.jpg,Stimuli/43A2.jpg,Stimuli/43A3.jpg,Stimuli/43B1.jpg,Stimuli/43B2.jpg,Stimuli/43B3.jpg,Stimuli/43C1.jpg,Stimuli/43C2.jpg,Stimuli/43C3.jpg,,,,,0,9,9,43,,,,,,,,844.089633399999,None,845.0896841000067,None,851.089650000009,None,"[-0.2, 0.346]","[0.399, -0.003]","[-0.203, -0.347]","[-0.377, 0.138]","[0.306, 0.255]","[0.066, -0.395]","[-0.378, -0.136]","[0.07, 0.393]","[0.304, -0.26]",,8.497104050009511,23.180445850011893,18.01430414999777,"[-0.18703703703703703, -0.3435185185185185, 0.037037037037037035]","[0.38981481481481484, -0.11018518518518519, -0.4074074074074074]","[1, 1, 1]","[0, 0, 0]","[0, 0, 0]","[8.488874300004682, 18.00554360001115, 23.17175190000853]",0.007814650001819246,23.179564750011195,['A1'],['B3'],['C1'],['salmon'],['yellow'],['blue'],875.922258400009,None,10.0,7.163991300010821,875.922258400009,None,885.8388761000097,None,10.0,5.48161610000534,883.2221445000032,None,10.0,2.6812455000035698,891.3719408000034,None,3.0,8.648392899995088,<function functionImportanceA at 0x0000025819BA6378>,<function functionImportanceC at 0x000002581D2BA2F0>,<function functionImportanceB at 0x0000025819BA6840>,,,1.0,2.6812455000035698,10.0,3.3477869000053033,-0.0,2.6316809999989346,<function functiondiffB at 0x000002581BEDC2F0>,<function functiondiffC at 0x000002581BEDC048>,<function functiondiffA at 0x000002581BEDC378>,,,,,852.2640975000104,903.3551441000018,None,899.9882983999996,None,911.771465400001,None,30,001,2022_Jul_21_1117,2leo,2021.2.3,60.00553250681822,
3,22,Plan a beach day with your friends,Stimuli/22A1.jpg,Stimuli/22A2.jpg,Stimuli/22A3.jpg,Stimuli/22B1.jpg,Stimuli/22B2.jpg,Stimuli/22B3.jpg,Stimuli/22C1.jpg,Stimuli/22C2.jpg,Stimuli/22C3.jpg,,,,,0,10,10,22,,,,,,,,913.9212111000088,None,914.9212549000076,None,920.9212396000075,None,"[0.304, -0.26]","[0.07, 0.393]","[-0.378, -0.136]","[0.066, -0.395]","[0.306, 0.255]","[-0.377, 0.138]","[-0.203, -0.347]","[0.399, -0.003]","[-0.2, 0.346]",,48.4862941000174,46.970267500015325,43.13672350002162,"[-0.19814814814814816, -0.3731481481481482, 0.24351851851851852]","[-0.2833333333333333, 0.12962962962962962, -0.19074074074074074]","[1, 1, 1]","[0, 0, 0]","[0, 0, 0]","[43.12457309999445, 46.95826539999689, 48.474603099995875]",0.011165100018843077,48.485659700018005,['A1'],['B3'],['C1'],['salmon'],['yellow'],['blue'],971.0364345999988,None,1.0,5.73123449999548,971.0364345999988,None,984.6694122000044,None,10.0,2.381991799993557,982.0028596000047,None,10.0,2.631765500002075,976.820701500008,None,0.0,5.147531100010383,<function functionImportanceB at 0x000002581D2BA510>,<function functionImportanceA at 0x000002581D2BA8C8>,<function functionImportanceC at 0x000002581D2BA620>,,,0.0,2.631765500002075,10.0,5.814656300004572,0.0,7.030967800004873,<function functiondiffA at 0x000002581BEDC158>,<function functiondiffB at 0x000002581BEDC510>,<function functiondiffC at 0x000002581D2BAAE8>,,,,,922.0757831000083,999.9026015999989,None,994.0692903000017,None,987.019426400002,None,30,001,2022_Jul_21_1117,2leo,2021.2.3,60.00553250681822,
3,36,Plan your shopping for new clothing,Stimuli/36A1.jpg,Stimuli/36A2.jpg,Stimuli/36A3.jpg,Stimuli/36B1.jpg,Stimuli/36B2.jpg,Stimuli/36B3.jpg,Stimuli/36C1.jpg,Stimuli/36C2.jpg,Stimuli/36C3.jpg,,,,,0,11,11,36,,,,,,,,1002.8019465000107,None,1003.8024206000118,None,1009.802330800012,None,"[-0.378, -0.136]","[0.07, 0.393]","[0.304, -0.26]","[-0.2, 0.346]","[0.399, -0.003]","[-0.203, -0.347]","[-0.377, 0.138]","[0.306, 0.255]","[0.066, -0.395]",,17.1654870500206,21.081967750011245,31.048949250020087,"[0.2935185185185185, -0.14351851851851852, 0.05185185185185185, -0.15462962962962962, 0.31851851851851853]","[-0.26296296296296295, 0.38333333333333336, 0.38981481481481484, -0.39444444444444443, 0.21203703703703702]","[1, 1, 1, 1, 1]","[0, 0, 0, 0, 0]","[0, 0, 0, 0, 0]","[17.14804390000063, 21.064388099999633, 22.664631899999222, 26.914247299995623, 31.031109599993215]",0.016828450010507368,31.047715250009787,['A3'],['B1'],['C2'],['blue'],['salmon'],['yellow'],1042.451348600007,None,0.0,5.263092799999868,1042.451348600007,None,1059.4840918000118,None,0.0,4.098514799989061,1047.7845731999987,None,10.0,7.130936500005191,1054.9175480000122,None,0.0,4.531627500007744,<function functionImportanceA at 0x000002581D2BABF8>,<function functionImportanceB at 0x000002581D2BA378>,<function functionImportanceC at 0x000002581D2BAF28>,,,10.0,7.130936500005191,10.0,5.5148656999954255,-0.0,5.247823600002448,<function functiondiffB at 0x000002581BEDCAE8>,<function functiondiffA at 0x000002581BEDC950>,<function functiondiffC at 0x000002581BEDCEA0>,,,,,1010.9359708999982,1074.3505932000116,None,1063.5675090000004,None,1069.1006347000075,None,30,001,2022_Jul_21_1117,2leo,2021.2.3,60.00553250681822,
3,42,Plan how to draw a painting ,Stimuli/42A1.jpg,Stimuli/42A2.jpg,Stimuli/42A3.jpg,Stimuli/42B1.jpg,Stimuli/42B2.jpg,Stimuli/42B3.jpg,Stimuli/42C1.jpg,Stimuli/42C2.jpg,Stimuli/42C3.jpg,,,,,0,12,12,42,,,,,,,,1078.7333226000046,None,1079.7336406000104,None,1085.7338739000115,None,"[-0.377, 0.138]","[0.306, 0.255]","[0.066, -0.395]","[-0.2, 0.346]","[0.399, -0.003]","[-0.203, -0.347]","[-0.378, -0.136]","[0.07, 0.393]","[0.304, -0.26]",,21.324547300013364,16.791854700015392,9.508708000023034,"[0.09722222222222222, -0.16666666666666666, 0.3333333333333333]","[0.4351851851851852, 0.3648148148148148, 0.2037037037037037]","[1, 1, 1]","[0, 0, 0]","[0, 0, 0]","[9.50195019999228, 16.785483599989675, 21.318323599989526]",0.005681100024958141,21.32398000001558,['A2'],['B1'],['C2'],['yellow'],['blue'],['salmon'],1108.832871999999,None,8.0,3.7139004999917233,1108.832871999999,None,1124.9826724000013,None,10.0,2.131607899995288,1118.9327303000027,None,10.0,6.181737699997029,1112.6160416000057,None,10.0,6.147501100000227,<function functionImportanceB at 0x000002581D2BA9D8>,<function functionImportanceA at 0x000002581D2BA158>,<function functionImportanceC at 0x000002581D2BA488>,,,0.0,6.181737699997029,-0.0,6.430896899997606,0.0,3.7645266000035917,<function functiondiffB at 0x000002581D2BAD90>,<function functiondiffA at 0x000002581D2BA268>,<function functiondiffC at 0x000002581D2BA6A8>,,,,,1087.0297638000047,1137.3321443000023,None,1127.0992494000093,None,1133.5824282000103,None,30,001,2022_Jul_21_1117,2leo,2021.2.3,60.00553250681822,
3,14,Plan your own Pizza for dinner,Stimuli/14A1.jpg,Stimuli/14A2.jpg,Stimuli/14A3.jpg,Stimuli/14B1.jpg,Stimuli/14B2.jpg,Stimuli/14B3.jpg,Stimuli/14C1.jpg,Stimuli/14C2.jpg,Stimuli/14C3.jpg,,,,,0,13,13,14,,,,,,,,1140.0150667000125,None,1141.0154507000116,None,1147.0153647000116,None,"[0.066, -0.395]","[0.306, 0.255]","[-0.377, 0.138]","[0.304, -0.26]","[0.07, 0.393]","[-0.378, -0.136]","[-0.203, -0.347]","[0.399, -0.003]","[-0.2, 0.346]",,12.483711050022976,22.433569550019456,31.783683450019453,"[0.02962962962962963, -0.4583333333333333, -0.4546296296296296, -0.45, -0.44907407407407407, -0.44537037037037036, -0.4462962962962963, 0.28888888888888886, 0.475]","[-0.4101851851851852, 0.21296296296296297, 0.21296296296296297, 0.20925925925925926, 0.20925925925925926, 0.20925925925925926, 0.20925925925925926, -0.2111111111111111, 0.07592592592592592]","[1, 1, 1, 1, 1, 1, 1, 1, 1]","[0, 0, 0, 0, 0, 0, 0, 0, 0]","[0, 0, 0, 0, 0, 0, 0, 0, 0]","[12.482307199999923, 14.798995000004652, 14.998789899997064, 15.24872509999841, 15.41520020000462, 15.598751500001526, 15.815288600002532, 22.431918999995105, 31.781665499991504]",0.000990650019957684,31.782594850010355,['A1'],['B1'],['C2'],['yellow'],['salmon'],['blue'],1180.4642131,None,0.0,3.146843100010301,1180.4642131,None,1190.1471885000065,None,0.0,10.531821399999899,1187.1474889000092,None,10.0,3.0151345999911427,1183.7309144000028,None,10.0,3.447944900006405,<function functionImportanceB at 0x000002581D2BAE18>,<function functionImportanceA at 0x000002581D2BAD08>,<function functionImportanceC at 0x000002581D2BA0D0>,,,10.0,3.0151345999911427,10.0,2.7810755999962566,10.0,3.6482640000031097,<function functiondiffC at 0x000002581D2BA400>,<function functiondiffB at 0x000002581D2BA840>,<function functiondiffA at 0x000002581D2BAEA0>,,,,,1148.1970127000095,1200.6970819000126,None,1204.8635885000112,None,1207.6470211999986,None,30,001,2022_Jul_21_1117,2leo,2021.2.3,60.00553250681822,
3,29,Plan a day in the mountains ,Stimuli/29A1.jpg,Stimuli/29A2.jpg,Stimuli/29A3.jpg,Stimuli/29B1.jpg,Stimuli/29B2.jpg,Stimuli/29B3.jpg,Stimuli/29C1.jpg,Stimuli/29C2.jpg,Stimuli/29C3.jpg,,,,,0,14,14,29,,,,,,,,1210.8133324000082,None,1211.8136597999983,None,1217.8135139000078,None,"[-0.378, -0.136]","[0.304, -0.26]","[0.07, 0.393]","[-0.2, 0.346]","[-0.203, -0.347]","[0.399, -0.003]","[-0.377, 0.138]","[0.066, -0.395]","[0.306, 0.255]",,7.0618346000119345,14.644935000003898,18.51188250000996,"[0.3, -0.1398148148148148, 0.08518518518518518]","[-0.1962962962962963, -0.2740740740740741, -0.45185185185185184]","[1, 1, 1]","[0, 0, 0]","[0, 0, 0]","[7.054533799993806, 14.637309700003243, 18.504010599994217]",0.006765400015865453,18.51056240001344,['A2'],['B2'],['C2'],['salmon'],['blue'],['yellow'],1237.9961923000083,None,7.0,3.647187300011865,1237.9961923000083,None,1244.596000800011,None,0.0,5.06527060001099,1241.7629192000022,None,10.0,2.8649238999933004,1249.6625071000017,None,10.0,4.115063599994755,<function functionImportanceA at 0x000002581D2BA1E0>,<function functionImportanceC at 0x000002581D994378>,<function functionImportanceB at 0x000002581D994488>,,,10.0,2.8649238999933004,10.0,11.064200499997241,0.0,4.331023200007621,<function functiondiffA at 0x000002581D2BAA60>,<function functiondiffB at 0x000002581BEDCF28>,<function functiondiffC at 0x000002581D994268>,,,,,1219.0063863000105,1269.2121509999997,None,1258.1290930000105,None,1253.7959808000014,None,30,001,2022_Jul_21_1117,2leo,2021.2.3,60.00553250681822,
3,2,Plan which ingredients you want to use for cooking dinner today,Stimuli/2A1.jpg,Stimuli/2A2.jpg,Stimuli/2A3.jpg,Stimuli/2B1.jpg,Stimuli/2B2.jpg,Stimuli/2B3.jpg,Stimuli/2C1.jpg,Stimuli/2C2.jpg,Stimuli/2C3.jpg,,,,,0,15,15,2,,,,,,,,1278.0117637000076,None,1279.011807700008,None,1285.0117651000037,None,"[0.066, -0.395]","[0.306, 0.255]","[-0.377, 0.138]","[-0.203, -0.347]","[0.399, -0.003]","[-0.2, 0.346]","[0.304, -0.26]","[0.07, 0.393]","[-0.378, -0.136]",,17.561835150336265,14.462236950334045,20.345590850323788,"[-0.17592592592592593, -0.42777777777777776, 0.23796296296296296]","[-0.32685185185185184, 0.1935185185185185, -0.1787037037037037]","[1, 1, 1]","[0, 0, 0]","[0, 0, 0]","[14.454997700013337, 17.55467560001125, 20.338112000012188]",0.006528450336190872,20.34438295032305,['A3'],['B1'],['C1'],['salmon'],['yellow'],['blue'],1311.9274683000112,None,8.0,3.063553599989973,1311.9274683000112,None,1315.6442558000126,None,-0.0,15.03074829999241,1340.3768786,None,3.0,4.815932800003793,1333.41018240001,None,10.0,9.131677900004433,<function functionImportanceC at 0x000002581D2BA048>,<function functionImportanceB at 0x000002581BEDC598>,<function functionImportanceA at 0x000002581BEDC620>,,,-0.0,4.815932800003793,-0.0,16.64727899999707,10.0,10.630934000000707,<function functiondiffB at 0x000002581D994B70>,<function functiondiffA at 0x000002581D994AE8>,<function functiondiffC at 0x000002581D994E18>,,,,,1291.1234679000045,1371.5594195000012,None,1344.893508699999,None,1361.0431680000038,None,30,001,2022_Jul_21_1117,2leo,2021.2.3,60.00553250681822,
3,24,Plan your Monday morning on a workday ,Stimuli/24A1.jpg,Stimuli/24A2.jpg,Stimuli/24A3.jpg,Stimuli/24B1.jpg,Stimuli/24B2.jpg,Stimuli/24B3.jpg,Stimuli/24C1.jpg,Stimuli/24C2.jpg,Stimuli/24C3.jpg,,,,,0,16,16,24,,,,,,,,1374.425607600002,None,1375.4259773000085,None,1381.4258006000018,None,"[-0.377, 0.138]","[0.306, 0.255]","[0.066, -0.395]","[-0.2, 0.346]","[0.399, -0.003]","[-0.203, -0.347]","[-0.378, -0.136]","[0.07, 0.393]","[0.304, -0.26]",,12.370183950013597,16.320214250023128,20.05382525002642,"[-0.32222222222222224, -0.15, 0.03518518518518519]","[0.11018518518518519, 0.39444444444444443, 0.41203703703703703]","[1, 1, 1]","[0, 0, 0]","[0, 0, 0]","[12.35877239999536, 16.308517999990727, 20.041845999992802]",0.010973550015478395,20.052592050022213,['A1'],['B1'],['C2'],['yellow'],['blue'],['salmon'],1403.1251164999994,None,6.0,2.980418799998006,1403.1251164999994,None,1406.1918472000107,None,1.0,7.314468600001419,1416.34179820001,None,10.0,11.39836330000253,1413.5749791999988,None,10.0,2.798519200005103,<function functionImportanceC at 0x000002581D2BAC80>,<function functionImportanceB at 0x000002581D2BA950>,<function functionImportanceA at 0x000002581D2BA730>,,,-0.0,11.39836330000253,0.0,25.56405359999917,-0.0,3.030972299995483,<function functiondiffA at 0x000002581D2BA598>,<function functiondiffC at 0x000002581D9949D8>,<function functiondiffB at 0x000002581D2BA7B8>,,,,,1382.5985649000067,1430.7579046000028,None,1436.0245060000016,None,1427.7080115999997,None,30,001,2022_Jul_21_1117,2leo,2021.2.3,60.00553250681822,
3,38,Plan how you want to go for a run,Stimuli/38A1.jpg,Stimuli/38A2.jpg,Stimuli/38A3.jpg,Stimuli/38B1.jpg,Stimuli/38B2.jpg,Stimuli/38B3.jpg,Stimuli/38C1.jpg,Stimuli/38C2.jpg,Stimuli/38C3.jpg,,,,,0,17,17,38,,,,,,,,1461.1067028000107,None,1462.107018900002,None,1468.1070623000123,None,"[0.07, 0.393]","[-0.378, -0.136]","[0.304, -0.26]","[0.399, -0.003]","[-0.2, 0.346]","[-0.203, -0.347]","[0.306, 0.255]","[-0.377, 0.138]","[0.066, -0.395]",,13.742063800018514,12.375577500017243,8.693916200019885,"[-0.31851851851851853, 0.3907407407407407, -0.41574074074074074]","[0.18611111111111112, 0.049074074074074076, -0.062037037037037036]","[1, 1, 1]","[0, 0, 0]","[0, 0, 0]","[8.679090300007374, 12.361026200000197, 13.727727400008007]",0.013820800013490953,13.741217700007837,['A2'],['B1'],['C2'],['blue'],['yellow'],['salmon'],1483.53966390001,None,10.0,2.9635985999921104,1483.53966390001,None,1486.6565064000024,None,10.0,3.5144760999974096,1494.389765800006,None,10.0,3.0483007000002544,1490.0896432000009,None,10.0,4.265433199994732,<function functionImportanceC at 0x000002581FA04730>,<function functionImportanceB at 0x000002581D994840>,<function functionImportanceA at 0x000002581D9941E0>,,,0.0,3.0483007000002544,8.0,5.530819099993096,0.0,3.3813625000038883,<function functiondiffB at 0x000002581D994510>,<function functiondiffA at 0x000002581BEDC400>,<function functiondiffC at 0x000002581D994F28>,,,,,1469.3277998999984,1506.389286000005,None,1497.4228498000011,None,1502.972688400012,None,30,001,2022_Jul_21_1117,2leo,2021.2.3,60.00553250681822,
3,33,Plan the items to decorate your Christmas tree,Stimuli/33A1.jpg,Stimuli/33A2.jpg,Stimuli/33A3.jpg,Stimuli/33B1.jpg,Stimuli/33B2.jpg,Stimuli/33B3.jpg,Stimuli/33C1.jpg,Stimuli/33C2.jpg,Stimuli/33C3.jpg,,,,,0,18,18,33,,,,,,,,1509.155419600007,None,1510.1557537000044,None,1516.1559046000039,None,"[0.399, -0.003]","[-0.2, 0.346]","[-0.203, -0.347]","[0.07, 0.393]","[-0.378, -0.136]","[0.304, -0.26]","[0.306, 0.255]","[-0.377, 0.138]","[0.066, -0.395]",,30.05997645003663,12.411877450038446,25.077175550046377,"[0.2796296296296296, -0.3731481481481482, -0.1675925925925926]","[-0.2740740740740741, 0.0962962962962963, 0.33240740740740743]","[1, 1, 1]","[0, 0, 0]","[0, 0, 0]","[12.402422899991507, 25.067531299995608, 30.05079979999573]",0.008619050044217147,30.059339650033507,['A2'],['B3'],['C2'],['salmon'],['blue'],['yellow'],1548.3714642000123,None,2.0,5.496911800000817,1548.3714642000123,None,1553.9546899999987,None,1.0,22.264200799996615,1576.7375192000036,None,1.0,12.048355499995523,1588.2706084000092,None,10.0,2.4485458000126528,<function functionImportanceC at 0x000002581FA04598>,<function functionImportanceA at 0x000002581BEDC9D8>,<function functionImportanceB at 0x000002581D994400>,,,0.0,12.048355499995523,10.0,5.547504199988907,8.0,2.664419699998689,<function functiondiffB at 0x000002581D994598>,<function functiondiffA at 0x000002581D994EA0>,<function functiondiffC at 0x000002581FA04BF8>,,,,,1517.8530739999987,1598.9703463000042,None,1590.72052670001,None,1596.4202812000003,None,30,001,2022_Jul_21_1117,2leo,2021.2.3,60.00553250681822,
3,19,Plan how you want your garden to look like,Stimuli/19A1.jpg,Stimuli/19A2.jpg,Stimuli/19A3.jpg,Stimuli/19B1.jpg,Stimuli/19B2.jpg,Stimuli/19B3.jpg,Stimuli/19C1.jpg,Stimuli/19C2.jpg,Stimuli/19C3.jpg,,,,,0,19,19,19,,,,,,,,1602.269652700008,None,1603.26988230001,None,1609.2701140999998,None,"[0.399, -0.003]","[-0.2, 0.346]","[-0.203, -0.347]","[0.306, 0.255]","[-0.377, 0.138]","[0.066, -0.395]","[0.07, 0.393]","[-0.378, -0.136]","[0.304, -0.26]",,9.230524400176364,5.197293500168598,15.863966900171363,"[-0.3962962962962963, -0.1935185185185185, 0.040740740740740744]","[0.13055555555555556, -0.3055555555555556, 0.34814814814814815]","[1, 1, 1]","[0, 0, 0]","[0, 0, 0]","[5.184775000001537, 9.218228500001715, 15.851334699997096]",0.011701900177286007,15.862839200170129,['A3'],['B2'],['C1'],['salmon'],['yellow'],['blue'],1629.2524804999994,None,8.0,2.4793409000121756,1629.2524804999994,None,1640.454855200005,None,7.0,9.54822910000803,1631.8359797000012,None,9.0,7.264554900000803,1649.7522846000065,None,1.0,6.714732200009166,<function functionImportanceA at 0x000002581FA04378>,<function functionImportanceC at 0x000002581FA04840>,<function functionImportanceB at 0x000002581FA042F0>,,,1.0,7.264554900000803,-0.0,3.197939999998198,10.0,4.298163400002522,<function functiondiffC at 0x000002581D2BAB70>,<function functiondiffA at 0x000002581FA041E0>,<function functiondiffB at 0x000002581FA049D8>,,,,,1612.936258200003,1655.7188202000107,None,1676.4349790000124,None,1671.8850842000102,None,30,001,2022_Jul_21_1117,2leo,2021.2.3,60.00553250681822,
3,34,Plan what car you want to buy,Stimuli/34A1.jpg,Stimuli/34A2.jpg,Stimuli/34A3.jpg,Stimuli/34B1.jpg,Stimuli/34B2.jpg,Stimuli/34B3.jpg,Stimuli/34C1.jpg,Stimuli/34C2.jpg,Stimuli/34C3.jpg,,,,,0,20,20,34,,,,,,,,1678.9176918000012,None,1679.9181160000007,None,1685.9180143000121,None,"[0.07, 0.393]","[-0.378, -0.136]","[0.304, -0.26]","[0.306, 0.255]","[-0.377, 0.138]","[0.066, -0.395]","[0.399, -0.003]","[-0.2, 0.346]","[-0.203, -0.347]",,12.817930600125692,37.502099800127326,24.55142180013354,"[-0.32222222222222224, 0.4083333333333333, 0.23796296296296296]","[-0.13703703703703704, 0.030555555555555555, 0.2037037037037037]","[1, 1, 1]","[0, 0, 0]","[0, 0, 0]","[12.81431239999074, 24.547394399996847, 37.4983241000009]",0.0031049001263454556,37.49998480013164,['A2'],['B1'],['C1'],['salmon'],['blue'],['yellow'],1727.0499348000012,None,10.0,3.5958543000015197,1727.0499348000012,None,1730.750016200007,None,9.0,2.8645699999906356,1740.1334336,None,10.0,4.415009499993175,1734.6001088000048,None,10.0,5.515070299996296,<function functionImportanceC at 0x000002581FA04B70>,<function functionImportanceB at 0x000002581FA04F28>,<function functionImportanceA at 0x000002581FA04950>,,,-0.0,4.415009499993175,1.0,5.531145100001595,3.0,6.4309465999976965,<function functiondiffA at 0x000002581FA04A60>,<function functiondiffB at 0x000002581FA048C8>,<function functiondiffC at 0x000002581FA04510>,,,,,1689.0858646999986,1755.532626900007,None,1750.2160611,None,1743.8663995000097,None,30,001,2022_Jul_21_1117,2leo,2021.2.3,60.00553250681822,
3,3,Plan a movie night with a friend,Stimuli/3A1.jpg,Stimuli/3A2.jpg,Stimuli/3A3.jpg,Stimuli/3B1.jpg,Stimuli/3B2.jpg,Stimuli/3B3.jpg,Stimuli/3C1.jpg,Stimuli/3C2.jpg,Stimuli/3C3.jpg,,,,,0,21,21,3,,,,,,,,1758.451352300006,None,1759.465896300011,None,1765.4658270000073,None,"[0.399, -0.003]","[-0.2, 0.346]","[-0.203, -0.347]","[0.306, 0.255]","[-0.377, 0.138]","[0.066, -0.395]","[0.07, 0.393]","[-0.378, -0.136]","[0.304, -0.26]",,31.564504650159506,26.78144115016039,24.731795050160144,"[-0.30833333333333335, -0.35833333333333334, -0.2212962962962963]","[-0.14907407407407408, 0.2064814814814815, -0.28888888888888886]","[1, 1, 1]","[0, 0, 0]","[0, 0, 0]","[24.718489499995485, 26.768307999998797, 31.55170769999677]",0.012192150155897252,31.563736750162207,['A3'],['B2'],['C2'],['salmon'],['blue'],['yellow'],1801.0981533000013,None,10.0,3.3970733000023756,1801.0981533000013,None,1813.8979422999982,None,10.0,12.265072599999257,1804.598326899999,None,10.0,3.3476702999905683,1808.6646800000017,None,10.0,4.265308800007915,<function functionImportanceA at 0x000002581D9948C8>,<function functionImportanceB at 0x000002581FA04EA0>,<function functionImportanceC at 0x0000025824099730>,,,0.0,3.3476702999905683,10.0,3.297675399997388,0.0,3.4149401000031503,<function functiondiffC at 0x0000025824099488>,<function functiondiffA at 0x000002581D994D90>,<function functiondiffB at 0x000002581FA047B8>,,,,,1769.077057900009,1824.8156233000045,None,1832.3140267000126,None,1828.5141848000058,None,30,001,2022_Jul_21_1117,2leo,2021.2.3,60.00553250681822,
3,12,Plan the ingredients to mix yourself a cocktail,Stimuli/12A1.jpg,Stimuli/12A2.jpg,Stimuli/12A3.jpg,Stimuli/12B1.jpg,Stimuli/12B2.jpg,Stimuli/12B3.jpg,Stimuli/12C1.jpg,Stimuli/12C2.jpg,Stimuli/12C3.jpg,,,,,0,22,22,12,,,,,,,,1834.76374580001,None,1835.764066200005,None,1841.7640089000051,None,"[0.07, 0.393]","[-0.378, -0.136]","[0.304, -0.26]","[0.399, -0.003]","[-0.2, 0.346]","[-0.203, -0.347]","[0.306, 0.255]","[-0.377, 0.138]","[0.066, -0.395]",,24.458864250031183,21.24235545002739,13.859687350020977,"[0.10185185185185185, -0.2388888888888889, -0.3972222222222222]","[-0.33240740740740743, 0.3685185185185185, -0.1962962962962963]","[1, 1, 1]","[0, 0, 0]","[0, 0, 0]","[13.8531013999891, 21.236078799993265, 24.452869799992186]",0.005464550020406023,24.458146750024753,['A2'],['B2'],['C3'],['blue'],['yellow'],['salmon'],1867.8796601000067,None,2.0,2.9130268000008073,1867.8796601000067,None,1877.1962973000045,None,10.0,2.165094700001646,1879.3629758000025,None,0.0,4.1983594999910565,1870.896293400001,None,10.0,6.2810326000035275,<function functionImportanceB at 0x0000025824099BF8>,<function functionImportanceC at 0x0000025824099400>,<function functionImportanceA at 0x000002581D9942F0>,,,10.0,4.1983594999910565,0.0,2.7646871999895666,8.0,4.347627499999362,<function functiondiffC at 0x0000025824099E18>,<function functiondiffB at 0x000002581FA04400>,<function functiondiffA at 0x000002581FA04D90>,,,,,1842.9418469000084,1883.5295549000002,None,1889.0458465999982,None,1891.8292734999995,None,30,001,2022_Jul_21_1117,2leo,2021.2.3,60.00553250681822,
3,11,Plan a hike in nature on a free day,Stimuli/11A1.jpg,Stimuli/11A2.jpg,Stimuli/11A3.jpg,Stimuli/11B1.jpg,Stimuli/11B2.jpg,Stimuli/11B3.jpg,Stimuli/11C1.jpg,Stimuli/11C2.jpg,Stimuli/11C3.jpg,,,,,0,23,23,11,,,,,,,,1895.6957733000017,None,1896.6958975000016,None,1902.6955683999986,None,"[0.306, 0.255]","[-0.377, 0.138]","[0.066, -0.395]","[0.07, 0.393]","[-0.378, -0.136]","[0.304, -0.26]","[0.399, -0.003]","[-0.2, 0.346]","[-0.203, -0.347]",,16.45490830001654,2.922235300007742,20.738789100010763,"[0.32037037037037036, -0.37592592592592594, -0.24722222222222223]","[-0.20092592592592592, 0.1259259259259259, -0.3768518518518518]","[1, 1, 1]","[0, 0, 0]","[0, 0, 0]","[2.9096710000012536, 16.442708799993852, 20.725977299996885]",0.011656000016955659,20.73735830001533,['A2'],['B3'],['C3'],['yellow'],['salmon'],['blue'],1925.0614812999993,None,10.0,13.929579400006332,1925.0614812999993,None,1941.5611148000025,None,10.0,2.0323964999988675,1943.6112858999986,None,10.0,2.198409599994193,1939.0614581000118,None,10.0,2.4803097999974852,<function functionImportanceB at 0x0000025824099B70>,<function functionImportanceC at 0x00000258240992F0>,<function functionImportanceA at 0x0000025824099A60>,,,0.0,2.198409599994193,10.0,2.147876200004248,10.0,5.897956700006034,<function functiondiffB at 0x000002581FA04E18>,<function functiondiffC at 0x000002581FA046A8>,<function functiondiffA at 0x000002581FA04048>,,,,,1903.8509249000053,1947.9612272000086,None,1945.7945187000005,None,1950.7610450000066,None,30,001,2022_Jul_21_1117,2leo,2021.2.3,60.00553250681822,
3,30,Plan your sport work out for tomorrow,Stimuli/30A1.jpg,Stimuli/30A2.jpg,Stimuli/30A3.jpg,Stimuli/30B1.jpg,Stimuli/30B2.jpg,Stimuli/30B3.jpg,Stimuli/30C1.jpg,Stimuli/30C2.jpg,Stimuli/30C3.jpg,,,,,0,24,24,30,,,,,,,,1956.1778291000082,None,1957.1773837000073,None,1963.1774245000124,None,"[-0.2, 0.346]","[-0.203, -0.347]","[0.399, -0.003]","[-0.378, -0.136]","[0.304, -0.26]","[0.07, 0.393]","[-0.377, 0.138]","[0.066, -0.395]","[0.306, 0.255]",,21.432597650011303,26.549696350004524,29.383020250010304,"[-0.18518518518518517, 0.28425925925925927, 0.03981481481481482]","[-0.32314814814814813, -0.3055555555555556, -0.37407407407407406]","[1, 1, 1]","[0, 0, 0]","[0, 0, 0]","[21.43135689999326, 26.54821069999889, 29.381278799992288]",0.0007090500148478895,29.38197405000392,['A2'],['B2'],['C2'],['blue'],['yellow'],['salmon'],1994.2263284000073,None,10.0,4.2137323999922955,1994.2263284000073,None,1998.5097377000056,None,-0.0,3.3130149000062374,2001.8427567000035,None,9.0,6.1981992999935756,2008.10952730001,None,0.0,2.447943099992699,<function functionImportanceC at 0x0000025824099158>,<function functionImportanceA at 0x0000025824099840>,<function functionImportanceB at 0x0000025824099AE8>,,,0.0,6.1981992999935756,3.0,3.697872999997344,6.0,4.397802300009062,<function functiondiffC at 0x00000258240991E0>,<function functiondiffA at 0x0000025824099EA0>,<function functiondiffB at 0x0000025824099C80>,,,,,1964.3594143000082,2010.4928790000122,None,2017.7425093000056,None,2013.3093866999989,None,30,001,2022_Jul_21_1117,2leo,2021.2.3,60.00553250681822,
3,6,Plan your wedding,Stimuli/6A1.jpg,Stimuli/6A2.jpg,Stimuli/6A3.jpg,Stimuli/6B1.jpg,Stimuli/6B2.jpg,Stimuli/6B3.jpg,Stimuli/6C1.jpg,Stimuli/6C2.jpg,Stimuli/6C3.jpg,,,,,0,25,25,6,,,,,,,,2020.944365400006,None,2021.9591752000124,None,2027.9592055000103,None,"[-0.2, 0.346]","[-0.203, -0.347]","[0.399, -0.003]","[-0.377, 0.138]","[0.066, -0.395]","[0.306, 0.255]","[-0.378, -0.136]","[0.304, -0.26]","[0.07, 0.393]",,34.982415200269315,31.49948140027118,25.91641020028328,"[0.13240740740740742, -0.36574074074074076, -0.25277777777777777]","[0.45185185185185184, 0.175, 0.2712962962962963]","[1, 1, 1]","[0, 0, 0]","[0, 0, 0]","[25.911625199994887, 31.495134299999336, 34.97833779999928]",0.0036693002766696736,34.981575200275984,['A1'],['B1'],['C3'],['yellow'],['salmon'],['blue'],2068.5244530000055,None,9.0,22.746098400006304,2068.5244530000055,None,2102.456846000001,None,2.0,3.965003400007845,2092.4908805000014,None,10.0,5.2146787000092445,2098.207288100006,None,0.0,4.681486399989808,<function functionImportanceA at 0x000002581FA04158>,<function functionImportanceB at 0x000002581FA04268>,<function functionImportanceC at 0x000002581D994D08>,,,3.0,5.2146787000092445,10.0,3.2482487999950536,10.0,7.164222099992912,<function functiondiffA at 0x000002581FA040D0>,<function functiondiffB at 0x000002581FA04620>,<function functiondiffC at 0x000002581FA04D08>,,,,,2033.0803963000071,2116.056489800001,None,2112.8069099999993,None,2105.5071154000034,None,30,001,2022_Jul_21_1117,2leo,2021.2.3,60.00553250681822,
3,44,Plan a party at your place,Stimuli/44A1.jpg,Stimuli/44A2.jpg,Stimuli/44A3.jpg,Stimuli/44B1.jpg,Stimuli/44B2.jpg,Stimuli/44B3.jpg,Stimuli/44C1.jpg,Stimuli/44C2.jpg,Stimuli/44C3.jpg,,,,,0,26,26,44,,,,,,,,2120.957150400005,None,2121.956655000002,None,2127.9566453000007,None,"[0.304, -0.26]","[-0.378, -0.136]","[0.07, 0.393]","[-0.203, -0.347]","[-0.2, 0.346]","[0.399, -0.003]","[0.066, -0.395]","[-0.377, 0.138]","[0.306, 0.255]",,20.755911050000577,14.2725658499985,26.055953949995455,"[-0.1527777777777778, -0.3296296296296296, 0.07685185185185185]","[-0.2712962962962963, -0.11944444444444445, -0.41203703703703703]","[1, 1, 1]","[0, 0, 0]","[0, 0, 0]","[14.267947800006368, 20.751491799994255, 26.05112800000643]",0.0038953500043135136,26.054823350001243,['A2'],['B1'],['C1'],['yellow'],['salmon'],['blue'],2155.672245400012,None,10.0,3.580100699997274,2155.672245400012,None,2159.355652500002,None,10.0,4.1144607000023825,2163.472219400006,None,10.0,2.165136800002074,2165.6888474000007,None,10.0,3.131651400006376,<function functionImportanceC at 0x000002581D994BF8>,<function functionImportanceA at 0x000002581D994950>,<function functionImportanceB at 0x000002581D9947B8>,,,-0.0,2.165136800002074,2.0,3.531055200000992,-0.0,2.747647699987283,<function functiondiffA at 0x0000025824099048>,<function functiondiffB at 0x00000258240998C8>,<function functiondiffC at 0x00000258240996A8>,,,,,2129.1363966000063,2175.071794400006,None,2171.521891700002,None,2168.7553793000116,None,30,001,2022_Jul_21_1117,2leo,2021.2.3,60.00553250681822,
3,10,Plan a restaurant visit with your family on the weekend ,Stimuli/10A1.jpg,Stimuli/10A2.jpg,Stimuli/10A3.jpg,Stimuli/10B1.jpg,Stimuli/10B2.jpg,Stimuli/10B3.jpg,Stimuli/10C1.jpg,Stimuli/10C2.jpg,Stimuli/10C3.jpg,,,,,0,27,27,10,,,,,,,,2177.455889100005,None,2178.455197400006,None,2184.4550234000053,None,"[0.399, -0.003]","[-0.203, -0.347]","[-0.2, 0.346]","[0.07, 0.393]","[0.304, -0.26]","[-0.378, -0.136]","[0.306, 0.255]","[0.066, -0.395]","[-0.377, 0.138]",,20.48803100018995,25.171166600179276,27.671490900189383,"[-0.22962962962962963, -0.41944444444444445, 0.13518518518518519]","[0.3287037037037037, -0.09259259259259259, -0.3990740740740741]","[1, 1, 1]","[0, 0, 0]","[0, 0, 0]","[20.486773299999186, 25.16964310000185, 27.669798300004913]",0.0005200001905905083,27.670391000181553,['A3'],['B3'],['C2'],['salmon'],['yellow'],['blue'],2216.5705436999997,None,9.0,6.814012000002549,2216.5705436999997,None,2276.61934070001,None,10.0,16.94365960000141,2223.55401420001,2253.0530456999986,None,None,2296.318662400008,None,10.0,7.015037000004668,<function functionImportanceA at 0x0000025824099598>,<function functionImportanceC at 0x000002581FA04C80>,<function functionImportanceB at 0x0000025824099D90>,,,-0.0,None,10.0,14.86412470000505,0.0,2.8811111000104574,<function functiondiffC at 0x0000025824099268>,<function functiondiffB at 0x0000025824099510>,<function functiondiffA at 0x0000025824099620>,,,,,2188.432483100012,2300.6017097000004,None,2311.435014600007,None,2325.567886100005,None,30,001,2022_Jul_21_1117,2leo,2021.2.3,60.00553250681822,
3,16,Plan a delicious cake for the birthday of a friend,Stimuli/16A1.jpg,Stimuli/16A2.jpg,Stimuli/16A3.jpg,Stimuli/16B1.jpg,Stimuli/16B2.jpg,Stimuli/16B3.jpg,Stimuli/16C1.jpg,Stimuli/16C2.jpg,Stimuli/16C3.jpg,,,,,0,28,28,16,,,,,,,,2327.9528269,None,2328.9678622000065,None,2334.9678734000045,None,"[-0.378, -0.136]","[0.304, -0.26]","[0.07, 0.393]","[-0.377, 0.138]","[0.066, -0.395]","[0.306, 0.255]","[-0.2, 0.346]","[-0.203, -0.347]","[0.399, -0.003]",,22.584987400026876,26.568826300019282,34.20222950002062,"[0.3388888888888889, -0.36944444444444446, 0.4185185185185185]","[-0.2814814814814815, 0.1037037037037037, 0.004629629629629629]","[1, 1, 1]","[0, 0, 0]","[0, 0, 0]","[22.57278669999505, 26.556454499994288, 34.18944339999871]",0.011695400025928393,34.20089570002165,['A2'],['B1'],['C3'],['blue'],['salmon'],['yellow'],2371.0999922000046,None,10.0,2.5631330999895,2371.0999922000046,None,2389.199680000005,None,10.0,4.331621400007862,2373.733476900001,None,10.0,11.864182899997104,2385.9164720000117,None,10.0,3.498231100005796,<function functionImportanceA at 0x00000258240999D8>,<function functionImportanceB at 0x00000258247A4AE8>,<function functionImportanceC at 0x00000258247A4A60>,,,-0.0,11.864182899997104,-0.0,3.1479134999972302,10.0,3.4310930000065127,<function functiondiffA at 0x00000258240990D0>,<function functiondiffB at 0x0000025824099F28>,<function functiondiffC at 0x0000025824099378>,,,,,2336.441437200003,2400.082570700004,None,2396.9328377000056,None,2393.449421700003,None,30,001,2022_Jul_21_1117,2leo,2021.2.3,60.00553250681822,
3,26,Plan how to wash one round of your laundry ,Stimuli/26A1.jpg,Stimuli/26A2.jpg,Stimuli/26A3.jpg,Stimuli/26B1.jpg,Stimuli/26B2.jpg,Stimuli/26B3.jpg,Stimuli/26C1.jpg,Stimuli/26C2.jpg,Stimuli/26C3.jpg,,,,,0,29,29,26,,,,,,,,2406.7168655999994,None,2407.7156931000063,None,2413.7157182000083,None,"[-0.2, 0.346]","[-0.203, -0.347]","[0.399, -0.003]","[-0.378, -0.136]","[0.304, -0.26]","[0.07, 0.393]","[-0.377, 0.138]","[0.066, -0.395]","[0.306, 0.255]",,17.083661700002267,7.884235500008799,12.217566600011196,"[0.33055555555555555, -0.42314814814814816, -0.18703703703703703]","[-0.29444444444444445, 0.18425925925925926, 0.31666666666666665]","[1, 1, 1]","[0, 0, 0]","[0, 0, 0]","[7.882555400006822, 12.215750700008357, 17.082362300003297]",0.0008840000082273036,17.082999700010987,['A1'],['B2'],['C1'],['blue'],['yellow'],['salmon'],2432.415019200009,None,10.0,2.980544500009273,2432.415019200009,None,2448.0481912000105,None,10.0,2.781880699985777,2442.7982592000044,None,10.0,5.2151688000012655,2435.4651111999992,None,10.0,7.331235000005108,<function functionImportanceB at 0x00000258247A48C8>,<function functionImportanceA at 0x00000258247A49D8>,<function functionImportanceC at 0x00000258247A47B8>,,,0.0,5.2151688000012655,0.0,3.6644693999987794,2.0,3.597555900007137,<function functiondiffC at 0x00000258240997B8>,<function functiondiffB at 0x0000025824099D08>,<function functiondiffA at 0x0000025824099950>,,,,,2414.8478640000103,2450.814647200008,None,2453.7313909000077,None,2457.4145415000094,None,30,001,2022_Jul_21_1117,2leo,2021.2.3,60.00553250681822,
3,23,Plan a city trip,Stimuli/23A1.jpg,Stimuli/23A2.jpg,Stimuli/23A3.jpg,Stimuli/23B1.jpg,Stimuli/23B2.jpg,Stimuli/23B3.jpg,Stimuli/23C1.jpg,Stimuli/23C2.jpg,Stimuli/23C3.jpg,,,,,0,30,30,23,,,,,,,,2468.380808300004,None,2469.3809162000107,None,2475.3807707000087,None,"[0.399, -0.003]","[-0.2, 0.346]","[-0.203, -0.347]","[0.306, 0.255]","[-0.377, 0.138]","[0.066, -0.395]","[0.07, 0.393]","[-0.378, -0.136]","[0.304, -0.26]",,10.232871900021564,4.916201700019883,13.9330732000235,"[0.2777777777777778, -0.16203703703703703, 0.06296296296296296]","[0.27870370370370373, 0.36666666666666664, 0.4564814814814815]","[1, 1, 1]","[0, 0, 0]","[0, 0, 0]","[4.914915500005009, 10.231802800000878, 13.931520300000557]",0.0005587000196101144,13.932047100024647,['A2'],['B1'],['C1'],['salmon'],['blue'],['yellow'],2490.963363600007,None,10.0,2.7637907000025734,2490.963363600007,None,2496.180114600007,None,10.0,1.915536999993492,2493.780171800012,None,10.0,2.3312038999865763,2498.080012999999,None,10.0,2.782076200004667,<function functionImportanceA at 0x00000258247A4BF8>,<function functionImportanceC at 0x00000258247A4EA0>,<function functionImportanceB at 0x00000258247A4D90>,,,0.0,2.3312038999865763,0.0,1.7143990000040503,0.0,1.5647679999965476,<function functiondiffB at 0x00000258247A4B70>,<function functiondiffC at 0x00000258247A4840>,<function functiondiffA at 0x00000258247A4F28>,,,,,2476.5472515,2502.580009700003,None,2500.846661000003,None,2503.9966518,None,30,001,2022_Jul_21_1117,2leo,2021.2.3,60.00553250681822,
3,18,Plan your Saturday night ,Stimuli/18A1.jpg,Stimuli/18A2.jpg,Stimuli/18A3.jpg,Stimuli/18B1.jpg,Stimuli/18B2.jpg,Stimuli/18B3.jpg,Stimuli/18C1.jpg,Stimuli/18C2.jpg,Stimuli/18C3.jpg,,,,,0,31,31,18,,,,,,,,2505.0813092000026,None,2506.0966203999997,None,2512.096293800001,None,"[-0.2, 0.346]","[-0.203, -0.347]","[0.399, -0.003]","[-0.377, 0.138]","[0.066, -0.395]","[0.306, 0.255]","[-0.378, -0.136]","[0.304, -0.26]","[0.07, 0.393]",,10.703312900004676,12.470392900009756,18.453842100003385,"[-0.13703703703703704, -0.3055555555555556, 0.32314814814814813]","[-0.2611111111111111, 0.1648148148148148, -0.19166666666666668]","[1, 1, 1]","[0, 0, 0]","[0, 0, 0]","[10.692021700000623, 12.458966800011694, 18.442065600000205]",0.010753800001111813,18.452609400002984,['A2'],['B1'],['C2'],['yellow'],['blue'],['salmon'],2532.1456711000064,None,-0.0,2.7473002999904566,2532.1456711000064,None,2542.4123589000083,None,0.0,3.581841199993505,2538.712123800011,None,-0.0,3.665039200001047,2534.929180700012,None,10.0,3.747168200003216,<function functionImportanceB at 0x000002581D994048>,<function functionImportanceA at 0x000002581D9940D0>,<function functionImportanceC at 0x00000258247A4950>,,,0.0,3.665039200001047,10.0,8.963955500003067,10.0,3.0144010999938473,<function functiondiffB at 0x00000258247A4158>,<function functiondiffC at 0x00000258247A41E0>,<function functiondiffA at 0x00000258247A4400>,,,,,2513.219807100002,2554.961977900006,None,2545.962229900004,None,2558.445161900003,None,30,001,2022_Jul_21_1117,2leo,2021.2.3,60.00553250681822,
3,28,Plan a one-week camping trip in Spain,Stimuli/28A1.jpg,Stimuli/28A2.jpg,Stimuli/28A3.jpg,Stimuli/28B1.jpg,Stimuli/28B2.jpg,Stimuli/28B3.jpg,Stimuli/28C1.jpg,Stimuli/28C2.jpg,Stimuli/28C3.jpg,,,,,0,32,32,28,,,,,,,,2560.9800767999986,None,2561.994971799999,None,2567.995073500002,None,"[-0.2, 0.346]","[-0.203, -0.347]","[0.399, -0.003]","[-0.377, 0.138]","[0.066, -0.395]","[0.306, 0.255]","[-0.378, -0.136]","[0.304, -0.26]","[0.07, 0.393]",,20.470055450001382,16.237304750000476,4.954587950007408,"[0.03425925925925926, 0.028703703703703703, -0.12222222222222222]","[0.30462962962962964, -0.4083333333333333, 0.2916666666666667]","[1, 1, 1]","[0, 0, 0]","[0, 0, 0]","[4.942620100002387, 16.225622400001157, 20.458750400008284]",0.010865650008781813,20.46956895000767,['A1'],['B2'],['C3'],['blue'],['salmon'],['yellow'],2590.0776417000015,None,9.0,2.7800123000051826,2590.0776417000015,None,2595.64426310001,None,10.0,2.6818236999970395,2598.360810600003,None,2.0,3.331677399997716,2592.910899499999,None,10.0,2.714835300008417,<function functionImportanceB at 0x0000025824D5B950>,<function functionImportanceC at 0x0000025824D5B2F0>,<function functionImportanceA at 0x000002581D994730>,,,0.0,3.331677399997716,0.0,2.4975582999904873,0.0,2.3476968000031775,<function functiondiffB at 0x00000258247A4488>,<function functiondiffC at 0x00000258247A4048>,<function functiondiffA at 0x00000258247A40D0>,,,,,2569.1336149000126,2604.194034100001,None,2601.6773855000065,None,2606.3773392000003,None,30,001,2022_Jul_21_1117,2leo,2021.2.3,60.00553250681822,
3,40,Plan to see a sports event ,Stimuli/40A1.jpg,Stimuli/40A2.jpg,Stimuli/40A3.jpg,Stimuli/40B1.jpg,Stimuli/40B2.jpg,Stimuli/40B3.jpg,Stimuli/40C1.jpg,Stimuli/40C2.jpg,Stimuli/40C3.jpg,,,,,0,33,33,40,,,,,,,,2608.2457035000116,None,2609.2604030000075,None,2615.260536600006,None,"[-0.377, 0.138]","[0.306, 0.255]","[0.066, -0.395]","[-0.2, 0.346]","[0.399, -0.003]","[-0.203, -0.347]","[-0.378, -0.136]","[0.07, 0.393]","[0.304, -0.26]",,27.559600300024613,16.04393660002097,12.86048730002949,"[-0.3111111111111111, 0.32685185185185184, -0.31666666666666665]","[-0.125, 0.019444444444444445, 0.07962962962962963]","[1, 1, 1]","[0, 0, 0]","[0, 0, 0]","[12.852772800004459, 16.0362798999995, 27.55242380000709]",0.006751400025677867,27.5591006000177,['A1'],['B2'],['C1'],['blue'],['yellow'],['salmon'],2644.6261887,None,0.0,3.8136317000025883,2644.6261887,None,2655.526081300006,None,-0.0,9.848116499997559,2651.9259807000053,None,10.0,3.6147016000031726,2648.6427031000057,None,-0.0,3.3649277000076836,<function functionImportanceB at 0x0000025824D5B8C8>,<function functionImportanceA at 0x0000025824D5B400>,<function functionImportanceC at 0x0000025824D5B7B8>,,,0.0,3.6147016000031726,-0.0,10.730891400002292,-0.0,8.097957599995425,<function functiondiffA at 0x0000025824D5B268>,<function functiondiffC at 0x0000025824D5B6A8>,<function functiondiffB at 0x0000025824D5B598>,,,,,2616.5901063000056,2673.475567500005,None,2676.908804400009,None,2665.359043000004,None,30,001,2022_Jul_21_1117,2leo,2021.2.3,60.00553250681822,
3,7,Plan your Sunday breakfast ,Stimuli/7A1.jpg,Stimuli/7A2.jpg,Stimuli/7A3.jpg,Stimuli/7B1.jpg,Stimuli/7B2.jpg,Stimuli/7B3.jpg,Stimuli/7C1.jpg,Stimuli/7C2.jpg,Stimuli/7C3.jpg,,,,,0,34,34,7,,,,,,,,2687.127282600006,None,2688.1416739999986,None,2694.1416920000047,None,"[0.304, -0.26]","[0.07, 0.393]","[-0.378, -0.136]","[0.066, -0.395]","[0.306, 0.255]","[-0.377, 0.138]","[-0.203, -0.347]","[0.399, -0.003]","[-0.2, 0.346]",,10.851497250332613,4.851843750322587,8.318702650329215,"[-0.3509259259259259, 0.39814814814814814, -0.37777777777777777]","[0.20833333333333334, -0.037037037037037035, -0.11944444444444445]","[1, 1, 1]","[0, 0, 0]","[0, 0, 0]","[4.842184699999052, 8.308907400001772, 10.842116200001328]",0.008764750324189663,10.850827650327119,['A3'],['B3'],['C2'],['yellow'],['salmon'],['blue'],2711.391063400006,None,10.0,1.6808364000025904,2711.391063400006,None,2721.0907195000036,None,10.0,3.5980378999956883,2725.2742071000102,None,10.0,4.998758000001544,2714.9745381000102,None,10.0,6.731089599998086,<function functionImportanceB at 0x00000258247A4510>,<function functionImportanceC at 0x0000025824D5BB70>,<function functionImportanceA at 0x00000258247A4C80>,,,5.0,4.998758000001544,-0.0,4.564401399999042,-0.0,3.5153748000011547,<function functiondiffB at 0x0000025824D5BC80>,<function functiondiffC at 0x0000025824D5B048>,<function functiondiffA at 0x0000025824D5B158>,,,,,2700.084335700012,2733.407264900001,None,2729.1407302000007,None,2735.8573265000014,None,30,001,2022_Jul_21_1117,2leo,2021.2.3,60.00553250681822,
3,9,Plan a picnic with friends,Stimuli/9A1.jpg,Stimuli/9A2.jpg,Stimuli/9A3.jpg,Stimuli/9B1.jpg,Stimuli/9B2.jpg,Stimuli/9B3.jpg,Stimuli/9C1.jpg,Stimuli/9C2.jpg,Stimuli/9C3.jpg,,,,,0,35,35,9,,,,,,,,2738.3927529000066,None,2739.407023000007,None,2745.4071738000057,None,"[-0.377, 0.138]","[0.306, 0.255]","[0.066, -0.395]","[-0.2, 0.346]","[0.399, -0.003]","[-0.203, -0.347]","[-0.378, -0.136]","[0.07, 0.393]","[0.304, -0.26]",,23.257983400297235,17.524953900297987,16.12559610028984,"[0.062037037037037036, -0.21574074074074073, -0.31296296296296294]","[0.43425925925925923, 0.3648148148148148, 0.1685185185185185]","[1, 1, 1]","[0, 0, 0]","[0, 0, 0]","[16.11427740000363, 17.513997899994138, 23.24726560000272]",0.010273000298184343,23.257504800290917,['A1'],['B1'],['C2'],['yellow'],['salmon'],['blue'],2774.672786700001,None,9.0,2.4140508999989834,2774.672786700001,None,2807.505407000004,None,10.0,6.231603499996709,2797.4723819000064,None,0.0,10.098411999992095,2778.5061940000014,None,10.0,18.7307148000109,<function functionImportanceB at 0x0000025824D5B9D8>,<function functionImportanceA at 0x0000025824D5B488>,<function functionImportanceC at 0x0000025824D5B378>,,,10.0,10.098411999992095,-0.0,3.2307049999944866,0.0,3.6647951000049943,<function functiondiffB at 0x0000025824D5B840>,<function functiondiffA at 0x0000025824D5BD90>,<function functiondiffC at 0x00000258247A4D08>,,,,,2750.9606166000012,2819.605226300002,None,2812.5885666000104,None,2815.938534800007,None,30,001,2022_Jul_21_1117,2leo,2021.2.3,60.00553250681822,
3,39,Plan what kind of watch you want to buy,Stimuli/39A1.jpg,Stimuli/39A2.jpg,Stimuli/39A3.jpg,Stimuli/39B1.jpg,Stimuli/39B2.jpg,Stimuli/39B3.jpg,Stimuli/39C1.jpg,Stimuli/39C2.jpg,Stimuli/39C3.jpg,,,,,0,36,36,39,,,,,,,,2823.393033900007,None,2824.4047941000026,None,2830.4047745999997,None,"[-0.378, -0.136]","[0.304, -0.26]","[0.07, 0.393]","[-0.2, 0.346]","[-0.203, -0.347]","[0.399, -0.003]","[-0.377, 0.138]","[0.066, -0.395]","[0.306, 0.255]",,15.732389250013512,7.53295315001742,12.616115650016582,"[0.4462962962962963, 0.03333333333333333, 0.014814814814814815]","[0.03981481481481482, -0.3527777777777778, 0.3972222222222222]","[1, 1, 1]","[0, 0, 0]","[0, 0, 0]","[7.5313300999987405, 12.61436859999958, 15.731038600002648]",0.0007168500160332769,15.73166865001258,['A3'],['B3'],['C2'],['blue'],['yellow'],['salmon'],2847.8375140999997,None,10.0,2.0640987000078894,2847.8375140999997,None,2850.054329800012,None,-0.0,2.131394800002454,2852.154250000007,None,10.0,2.981859399995301,2855.137600400005,None,10.0,5.515098600008059,<function functionImportanceC at 0x000002582528E048>,<function functionImportanceA at 0x0000025824D5B1E0>,<function functionImportanceB at 0x0000025824D5B730>,,,0.0,2.981859399995301,10.0,1.931246000007377,-0.0,5.481620100006694,<function functiondiffA at 0x0000025824D5BAE8>,<function functiondiffB at 0x0000025824D5B0D0>,<function functiondiffC at 0x000002582528E400>,,,,,2831.620576500005,2868.070631900002,None,2866.120739500009,None,2860.6205354999984,None,30,001,2022_Jul_21_1117,2leo,2021.2.3,60.00553250681822,
3,27,Plan what festival to visit with your friends,Stimuli/27A1.jpg,Stimuli/27A2.jpg,Stimuli/27A3.jpg,Stimuli/27B1.jpg,Stimuli/27B2.jpg,Stimuli/27B3.jpg,Stimuli/27C1.jpg,Stimuli/27C2.jpg,Stimuli/27C3.jpg,,,,,0,37,37,27,,,,,,,,2870.3398441000027,None,2871.3537357000023,None,2877.353611700004,None,"[0.304, -0.26]","[0.07, 0.393]","[-0.378, -0.136]","[-0.203, -0.347]","[0.399, -0.003]","[-0.2, 0.346]","[0.066, -0.395]","[0.306, 0.255]","[-0.377, 0.138]",,12.078114749994711,5.428355650001322,29.91153275000397,"[0.43703703703703706, 0.1111111111111111, 0.29907407407407405]","[-0.001851851851851852, 0.337037037037037, 0.21203703703703702]","[1, 1, 1]","[0, 0, 0]","[0, 0, 0]","[5.412857300005271, 12.062958199996501, 29.895811499998672]",0.014642850001109764,29.910213049995946,['A2'],['B2'],['C2'],['yellow'],['blue'],['salmon'],2908.8691626000073,None,10.0,1.997108700001263,2908.8691626000073,None,2910.9192030999984,None,10.0,4.664541499994812,2917.619025100008,None,10.0,2.6652519999915967,2915.61929290001,None,10.0,1.9985825000039767,<function functionImportanceC at 0x000002582528E0D0>,<function functionImportanceB at 0x000002582528E1E0>,<function functionImportanceA at 0x0000025824D5BA60>,,,10.0,2.6652519999915967,0.0,2.19792089999828,10.0,2.231358700009878,<function functiondiffC at 0x000002581D994C80>,<function functiondiffB at 0x00000258247A4268>,<function functiondiffA at 0x0000025824D5BD08>,,,,,2878.4885666000046,2920.285727900002,None,2923.4690365999995,None,2925.685576300006,None,30,001,2022_Jul_21_1117,2leo,2021.2.3,60.00553250681822,
3,5,Plan a birthday party for your younger self when you turn eight,Stimuli/5A1.jpg,Stimuli/5A2.jpg,Stimuli/5A3.jpg,Stimuli/5B1.jpg,Stimuli/5B2.jpg,Stimuli/5B3.jpg,Stimuli/5C1.jpg,Stimuli/5C2.jpg,Stimuli/5C3.jpg,,,,,0,38,38,5,,,,,,,,2927.438503199999,None,2928.45203320001,None,2934.452098499998,None,"[0.399, -0.003]","[-0.2, 0.346]","[-0.203, -0.347]","[0.07, 0.393]","[-0.378, -0.136]","[0.304, -0.26]","[0.306, 0.255]","[-0.377, 0.138]","[0.066, -0.395]",,20.12096760030545,29.57118340030138,14.021684200299205,"[-0.4083333333333333, -0.24444444444444444, -0.42407407407407405]","[0.18333333333333332, 0.3333333333333333, -0.1814814814814815]","[1, 1, 1]","[0, 0, 0]","[0, 0, 0]","[14.01941789999546, 20.119172399994568, 29.569160400002147]",0.0012622002977877855,29.57014860030904,['A2'],['B2'],['C2'],['blue'],['salmon'],['yellow'],2970.2843529000093,None,10.0,3.3965400000015507,2970.2843529000093,None,2985.1340938000067,None,10.0,2.232086599993636,2976.284294199999,None,0.0,6.297578899990185,2981.550840900003,None,-0.0,4.414950299993507,<function functionImportanceA at 0x0000025824D5B620>,<function functionImportanceB at 0x0000025824D5BE18>,<function functionImportanceC at 0x0000025824D5B510>,,,0.0,6.297578899990185,1.0,5.647792599993409,10.0,3.497734999997192,<function functiondiffA at 0x000002582528E158>,<function functiondiffB at 0x000002582528E598>,<function functiondiffC at 0x000002582528EBF8>,,,,,2940.2505063999997,2996.017197500012,None,2990.567269300009,None,2987.500733000008,None,30,001,2022_Jul_21_1117,2leo,2021.2.3,60.00553250681822,
3,20,Plan a tea party with your friends,Stimuli/20A1.jpg,Stimuli/20A2.jpg,Stimuli/20A3.jpg,Stimuli/20B1.jpg,Stimuli/20B2.jpg,Stimuli/20B3.jpg,Stimuli/20C1.jpg,Stimuli/20C2.jpg,Stimuli/20C3.jpg,,,,,0,39,39,20,,,,,,,,2998.1207817000104,None,2999.133575800006,None,3005.133521200012,None,"[0.306, 0.255]","[0.066, -0.395]","[-0.377, 0.138]","[0.07, 0.393]","[0.304, -0.26]","[-0.378, -0.136]","[0.399, -0.003]","[-0.203, -0.347]","[-0.2, 0.346]",,19.467593050183496,22.617640350188594,5.035113950187224,"[-0.2490740740740741, -0.3787037037037037, 0.001851851851851852]","[-0.31574074074074077, 0.15462962962962962, 0.4388888888888889]","[1, 1, 1]","[0, 0, 0]","[0, 0, 0]","[5.02838740000152, 19.46120860001247, 22.611175000012736]",0.005588550178799778,22.616817050176905,['A3'],['B1'],['C2'],['blue'],['salmon'],['yellow'],3031.8993158000085,None,10.0,2.0305246000061743,3031.8993158000085,None,3044.999165400004,None,-0.0,4.448390599995037,3049.5657409000123,None,0.0,4.031665100003011,3036.482761899999,None,10.0,10.981151300002239,<function functionImportanceB at 0x000002582528EAE8>,<function functionImportanceC at 0x000002582528E620>,<function functionImportanceA at 0x000002582528EF28>,,,10.0,4.031665100003011,0.0,2.7474027999996906,10.0,3.2645449000119697,<function functiondiffC at 0x00000258247A4598>,<function functiondiffB at 0x00000258247A4378>,<function functiondiffA at 0x000002581FA04AE8>,,,,,3008.8174788000033,3053.4824035000056,None,3056.6154243000055,None,3058.8155934000097,None,30,001,2022_Jul_21_1117,2leo,2021.2.3,60.00553250681822,
3,41,Plan how you want to have dinner tonight ,Stimuli/41A1.jpg,Stimuli/41A2.jpg,Stimuli/41A3.jpg,Stimuli/41B1.jpg,Stimuli/41B2.jpg,Stimuli/41B3.jpg,Stimuli/41C1.jpg,Stimuli/41C2.jpg,Stimuli/41C3.jpg,,,,,0,40,40,41,,,,,,,,3061.6199845000083,None,3062.6320455000096,None,3068.631921600012,None,"[0.07, 0.393]","[-0.378, -0.136]","[0.304, -0.26]","[0.399, -0.003]","[-0.2, 0.346]","[-0.203, -0.347]","[0.306, 0.255]","[-0.377, 0.138]","[0.066, -0.395]",,3.960169450030662,17.20974165003281,10.476868050027406,"[0.28055555555555556, 0.3277777777777778, 0.4027777777777778]","[-0.20185185185185187, 0.23703703703703705, 0.03611111111111111]","[1, 1, 1]","[0, 0, 0]","[0, 0, 0]","[3.9444763000064995, 10.460839200008195, 17.1939168000099]",0.015092350033228286,17.20897525003238,['A3'],['B1'],['C1'],['yellow'],['salmon'],['blue'],3087.6812900000077,None,0.0,5.379962999999407,3087.6812900000077,None,3099.7642455000023,None,0.0,3.948165699999663,3096.5142286000046,None,10.0,3.0653634000045713,3093.197976399999,None,10.0,3.347220199997537,<function functionImportanceB at 0x000002582528ED08>,<function functionImportanceA at 0x000002582528E510>,<function functionImportanceC at 0x000002582528E488>,,,10.0,3.0653634000045713,0.0,3.098336900002323,6.0,6.447826899995562,<function functiondiffC at 0x000002582528EA60>,<function functiondiffA at 0x0000025824D5BF28>,<function functiondiffB at 0x000002581D9946A8>,,,,,3070.003005800012,3103.5477705000085,None,3113.1306945000106,None,3106.664209200011,None,30,001,2022_Jul_21_1117,2leo,2021.2.3,60.00553250681822,
3,37,Plan your cleaning routine ,Stimuli/37A1.jpg,Stimuli/37A2.jpg,Stimuli/37A3.jpg,Stimuli/37B1.jpg,Stimuli/37B2.jpg,Stimuli/37B3.jpg,Stimuli/37C1.jpg,Stimuli/37C2.jpg,Stimuli/37C3.jpg,,,,,0,41,41,37,,,,,,,,3115.7506897999992,None,3116.763891399998,None,3122.763869900009,None,"[-0.378, -0.136]","[0.07, 0.393]","[0.304, -0.26]","[-0.2, 0.346]","[0.399, -0.003]","[-0.203, -0.347]","[-0.377, 0.138]","[0.306, 0.255]","[0.066, -0.395]",,13.698394150007516,7.732288450017222,23.59871455001121,"[-0.21944444444444444, -0.4398148148148148, -0.025, -0.007407407407407408]","[-0.275, -0.11666666666666667, -0.4027777777777778, -0.39814814814814814]","[1, 1, 1, 1]","[0, 0, 0, 0]","[0, 0, 0, 0]","[7.714898099991842, 13.681433299992932, 22.914537299991935, 23.581060800002888]",0.016540250013349578,23.597212150009,['A1'],['B3'],['C3'],['blue'],['yellow'],['salmon'],3147.9630228000024,None,7.0,2.8969553999922937,3147.9630228000024,None,3155.046649600001,None,10.0,5.431857500007027,3150.930957500008,None,10.0,4.097670500006643,3160.4795108000108,None,0.0,2.432270300007076,<function functionImportanceA at 0x000002582528E7B8>,<function functionImportanceC at 0x0000025824D5BBF8>,<function functionImportanceB at 0x000002582528EC80>,,,3.0,4.097670500006643,3.0,5.431244899999001,-0.0,3.1979918999859365,<function functiondiffB at 0x00000258247A4E18>,<function functiondiffC at 0x00000258258B87B8>,<function functiondiffA at 0x000002582528E2F0>,,,,,3123.8977044000058,3168.3627396000084,None,3162.9128860000055,None,3170.428967800006,None,30,001,2022_Jul_21_1117,2leo,2021.2.3,60.00553250681822,
3,21,Plan your sandwich for lunch,Stimuli/21A1.jpg,Stimuli/21A2.jpg,Stimuli/21A3.jpg,Stimuli/21B1.jpg,Stimuli/21B2.jpg,Stimuli/21B3.jpg,Stimuli/21C1.jpg,Stimuli/21C2.jpg,Stimuli/21C3.jpg,,,,,0,42,42,21,,,,,,,,3173.1494247000082,None,3174.16228840001,None,3180.1624258000084,None,"[-0.2, 0.346]","[-0.203, -0.347]","[0.399, -0.003]","[-0.377, 0.138]","[0.066, -0.395]","[0.306, 0.255]","[-0.378, -0.136]","[0.304, -0.26]","[0.07, 0.393]",,25.576029950010707,18.210575550008798,22.80962315000943,"[0.3416666666666667, 0.2361111111111111, 0.3490740740740741]","[0.27037037037037037, -0.19722222222222222, -0.023148148148148147]","[1, 1, 1]","[0, 0, 0]","[0, 0, 0]","[18.20412189999479, 22.803089900000487, 25.569938300002832]",0.005492550015333109,25.575327850005124,['A3'],['B3'],['C2'],['blue'],['yellow'],['salmon'],3207.3614081000123,None,8.0,2.2801552999881096,3207.3614081000123,None,3209.7112911000004,None,10.0,5.465678200009279,3215.1947692000103,None,10.0,6.998542500004987,3222.194539300006,None,10.0,2.1484212999930605,<function functionImportanceC at 0x00000258258B8620>,<function functionImportanceA at 0x00000258247A4620>,<function functionImportanceB at 0x00000258258B86A8>,,,9.0,6.998542500004987,0.0,3.464363699997193,3.0,6.381018200001563,<function functiondiffB at 0x00000258247A46A8>,<function functiondiffA at 0x000002582528E730>,<function functiondiffC at 0x00000258258B8A60>,,,,,3181.304999800006,3234.2106187000027,None,3224.3445768000092,None,3227.8112425,None,30,001,2022_Jul_21_1117,2leo,2021.2.3,60.00553250681822,
3,0,Plan a barbecue,Stimuli/0A1.jpg,Stimuli/0A2.jpg,Stimuli/0A3.jpg,Stimuli/0B1.jpg,Stimuli/0B2.jpg,Stimuli/0B3.jpg,Stimuli/0C1.jpg,Stimuli/0C2.jpg,Stimuli/0C3.jpg,,,,,0,43,43,0,,,,,,,,3237.781322300012,None,3238.793966199999,None,3244.794076700011,None,"[-0.378, -0.136]","[0.07, 0.393]","[0.304, -0.26]","[-0.2, 0.346]","[0.399, -0.003]","[-0.203, -0.347]","[-0.377, 0.138]","[0.306, 0.255]","[0.066, -0.395]",,13.521842950081918,21.521875250080484,24.438478550087893,"[-0.35648148148148145, -0.21388888888888888, -0.3685185185185185]","[-0.15462962962962962, 0.387037037037037, 0.15555555555555556]","[1, 1, 1]","[0, 0, 0]","[0, 0, 0]","[13.519827900003293, 21.519613299999037, 24.435973900006502]",0.0015771500911796466,24.43755105008313,['A1'],['B1'],['C1'],['yellow'],['salmon'],['blue'],3272.176460200004,None,1.0,3.262910599994939,3272.176460200004,None,3275.4932864,None,10.0,3.597596000006888,3280.4264005000005,None,10.0,5.348330199994962,3284.492937800009,None,1.0,8.015108200008399,<function functionImportanceC at 0x00000258258B8158>,<function functionImportanceA at 0x00000258258B8598>,<function functionImportanceB at 0x00000258258B82F0>,,,10.0,5.348330199994962,10.0,2.9812621000019135,0.0,2.648102099992684,<function functiondiffA at 0x000002582528EE18>,<function functiondiffB at 0x000002582528E840>,<function functiondiffC at 0x000002582528E268>,,,,,3247.270942700008,3298.159302100001,None,3295.159259600012,None,3292.8593573000107,None,30,001,2022_Jul_21_1117,2leo,2021.2.3,60.00553250681822,
3,13,Plan a romantic date this weekend,Stimuli/13A1.jpg,Stimuli/13A2.jpg,Stimuli/13A3.jpg,Stimuli/13B1.jpg,Stimuli/13B2.jpg,Stimuli/13B3.jpg,Stimuli/13C1.jpg,Stimuli/13C2.jpg,Stimuli/13C3.jpg,,,,,0,44,44,13,,,,,,,,3299.748361500009,None,3300.759075000009,None,3306.7590149000025,None,"[-0.378, -0.136]","[0.07, 0.393]","[0.304, -0.26]","[-0.2, 0.346]","[0.399, -0.003]","[-0.203, -0.347]","[-0.377, 0.138]","[0.306, 0.255]","[0.066, -0.395]",,26.353464800020447,19.670627600018634,7.971367700025439,"[0.2351851851851852, -0.2712962962962963, -0.4074074074074074]","[0.2212962962962963, -0.33055555555555555, -0.11388888888888889]","[1, 1, 1]","[0, 0, 0]","[0, 0, 0]","[7.967174500008696, 19.666613399997004, 26.349883200004115]",0.003151600030832924,26.35300780001853,['A1'],['B3'],['C2'],['blue'],['salmon'],['yellow'],3334.8247570000094,None,8.0,2.8315271999890683,3334.8247570000094,None,3340.524900400007,None,10.0,3.5482923000090523,3344.141538900003,None,10.0,2.6482831000030274,3337.7749564000114,None,-0.0,2.7807085999957053,<function functionImportanceB at 0x00000258258B8048>,<function functionImportanceC at 0x00000258258B8AE8>,<function functionImportanceA at 0x00000258258B88C8>,,,10.0,2.6482831000030274,0.0,2.731956399991759,0.0,4.430169100000057,<function functiondiffC at 0x00000258258B8F28>,<function functiondiffB at 0x00000258258B8268>,<function functiondiffA at 0x000002582528E950>,,,,,3307.9899221000087,3346.7080136000004,None,3350.0746851000004,None,3352.8076852000086,None,30,001,2022_Jul_21_1117,2leo,2021.2.3,60.00553250681822,
