Condition,N_Scenario,written_scenario,ImageA1,ImageA2,ImageA3,ImageB1,ImageB2,ImageB3,ImageC1,ImageC2,ImageC3,trials_2.thisRepN,trials_2.thisTrialN,trials_2.thisN,trials_2.thisIndex,trial.thisRepN,trial.thisTrialN,trial.thisN,trial.thisIndex,button_2.started,button_2.stopped,button_2.numClicks,button_2.timesOn,button_2.timesOff,text.started,text.stopped,fixationcross1_started,fixationcross1_stopped,Scenario_started,Scenario_stopped,fixationcross2_started,fixationcross2_stopped,A1pos,A2pos,A3pos,B1pos,B2pos,B3pos,C1pos,C2pos,C3pos,﻿Imagesdecision_started,decisiontimeA,decisiontimeB,decisiontimeC,mouse_x,mouse_y,mouse_leftButton,mouse_midButton,mouse_rightButton,mouse_time,mouse_started,mouse_stopped,clicked_optionA,clicked_optionB,clicked_optionC,colour_category_A,colour_category_B,colour_category_C,question_confidence_started,question_confidence_stopped,slider_confidence_response,slider_confidence_rt,slider_confidence_started,slider_confidence_stopped,question_valueC_started,question_valueC_stopped,slider_valueC_response,slider_valueC_rt,question_valueB_started,question_valueB_stopped,slider_valueB_response,slider_valueB_rt,question_valueA_started,question_valueA_stopped,slider_valueA_response,slider_valueA_rt,Importance_First,Importance_Second,Importance_Third,question_diff_started,question_diff_stopped,slider_diffA_response,slider_diffA_rt,slider_diffC_response,slider_diffC_rt,slider_diffB_response,slider_diffB_rt,diff_First,diff_Second,diff_Third,button_3_started,button_3_stopped,text_2_started,text_2_stopped,Imagesdecision_started,question_diffB_started,question_diffB_stopped,question_diffC_started,question_diffC_stopped,question_diffA_started,question_diffA_stopped,participant,session,date,expName,psychopyVersion,frameRate,
3,2,Plan a party to celebrate your birthday,Stimuli/2A1t.jpg,Stimuli/2A2t.jpg,Stimuli/2A3t.jpg,Stimuli/2B1t.jpg,Stimuli/2B2t.jpg,Stimuli/2B3t.jpg,Stimuli/2C1t.jpg,Stimuli/2C2t.jpg,Stimuli/2C3t.jpg,0,0,0,0,,,,,25.083314000003156,None,1,[4.886808099996415],[4.886811399992439],25.083314000003156,None,77.48331729999336,None,78.4847904999915,None,84.48477169999387,None,"[0.066, -0.395]","[0.306, 0.255]","[-0.377, 0.138]","[-0.203, -0.347]","[0.399, -0.003]","[-0.2, 0.346]","[0.304, -0.26]","[0.07, 0.393]","[-0.378, -0.136]",88.49661789998936,2.836497549971682,5.036512249964289,7.135084049965371,"[-0.33611111111111114, -0.14351851851851852, 0.06296296296296296]","[0.08333333333333333, -0.3509259259259259, 0.33425925925925926]","[1, 1, 1]","[0, 0, 0]","[0, 0, 0]","[2.8196602999960305, 5.0195728999970015, 7.117805099987891]",0.01625594995857682,7.134035149967531,['A3'],['B1'],['C2'],['yellow'],['salmon'],['blue'],96.08411739999428,None,8.0,4.463645299998461,96.08411739999428,None,100.63419799999974,None,6.0,13.080622099994798,115.27031239999633,None,7.0,12.815895699997782,127.83517619999475,None,10.0,5.48151979999966,<function functionImportanceCt at 0x0000012F1DAB1E18>,<function functionImportanceBt at 0x0000012F2D0B1D90>,<function functionImportanceAt at 0x0000012F2D0B1A60>,144.766249399996,None,3.0,5.48151979999966,3.0,5.0309341000101995,1.0,4.114400999998907,<function functiondiffAt at 0x0000012F2DE04BF8>,<function functiondiffCt at 0x0000012F2DE04950>,<function functiondiffBt at 0x0000012F2DE041E0>,,,,,,,,,,,,008,001,2022_Jun_14_1523,2leo,2021.2.3,59.377839000567086,
3,3,Plan one week of vacation,Stimuli/3A1t.jpg,Stimuli/3A2t.jpg,Stimuli/3A3t.jpg,Stimuli/3B1t.jpg,Stimuli/3B2t.jpg,Stimuli/3B3t.jpg,Stimuli/3C1t.jpg,Stimuli/3C2t.jpg,Stimuli/3C3t.jpg,0,1,1,1,,,,,,,,,,,,147.96617929999775,None,148.96609360000002,None,154.96592170000076,None,"[-0.2, 0.346]","[-0.203, -0.347]","[0.399, -0.003]","[-0.377, 0.138]","[0.066, -0.395]","[0.306, 0.255]","[-0.378, -0.136]","[0.304, -0.26]","[0.07, 0.393]",161.08240329999535,10.989815949913464,2.856365349900443,5.489915249912883,"[-0.35833333333333334, -0.3287037037037037, 0.33611111111111114]","[0.09907407407407408, -0.0787037037037037, -0.05277777777777778]","[1, 1, 1]","[0, 0, 0]","[0, 0, 0]","[2.850942800010671, 5.484322200005408, 10.984534400005941]",0.004630849900422618,10.988917649912764,['A3'],['B1'],['C1'],['blue'],['salmon'],['yellow'],172.53196369999205,None,9.0,4.180717900002492,172.53196369999205,None,186.7155800999899,None,4.0,8.331523699991521,195.3149517999991,None,9.0,5.015033799994853,178.70466869999655,None,7.0,8.448002000004635,<function functionImportanceAt at 0x0000012F2D0B1E18>,<function functionImportanceCt at 0x0000012F1A9431E0>,<function functionImportanceBt at 0x0000012F2D0B1BF8>,208.26458409999032,None,7.0,8.448002000004635,1.0,4.914331799998763,1.0,7.197211999999126,<function functiondiffCt at 0x0000012F2DE04598>,<function functiondiffAt at 0x0000012F2DE04A60>,<function functiondiffBt at 0x0000012F2DE04AE8>,,,,,,,,,,,,008,001,2022_Jun_14_1523,2leo,2021.2.3,59.377839000567086,
3,13,Plan a romantic date this weekend,Stimuli/13A1.jpg,Stimuli/13A2.jpg,Stimuli/13A3.jpg,Stimuli/13B1.jpg,Stimuli/13B2.jpg,Stimuli/13B3.jpg,Stimuli/13C1.jpg,Stimuli/13C2.jpg,Stimuli/13C3.jpg,,,,,0,0,0,13,,,,,,,,304.16162800000166,None,305.1453002999915,None,311.14508669999486,None,"[0.306, 0.255]","[-0.377, 0.138]","[0.066, -0.395]","[0.07, 0.393]","[-0.378, -0.136]","[0.304, -0.26]","[0.399, -0.003]","[-0.2, 0.346]","[-0.203, -0.347]",,7.944736949997605,14.261769349992392,19.47827554999094,"[0.3648148148148148, -0.43703703703703706, 0.4009259259259259]","[0.1824074074074074, -0.09814814814814815, 0.046296296296296294]","[1, 1, 1]","[0, 0, 0]","[0, 0, 0]","[7.92889439999999, 14.245595000000321, 19.461963199995807]",0.015416649999679066,19.477233550001984,['A1'],['B2'],['C1'],['yellow'],['blue'],['salmon'],332.3612149999972,None,8.0,4.81285729999945,332.3612149999972,None,347.39433379999537,None,8.0,8.548115599987796,337.3278728000005,None,2.0,3.8475284000014653,341.1777681999956,None,9.0,6.214676799994777,<function functionImportanceB at 0x0000012F2DE04F28>,<function functionImportanceA at 0x0000012F2CF70EA0>,<function functionImportanceC at 0x0000012F2A393F28>,,,9.0,6.39800839999225,7.0,6.214676799994777,2.0,5.197515000007115,<function functiondiffB at 0x0000012F2DE048C8>,<function functiondiffC at 0x0000012F2DE04C80>,<function functiondiffA at 0x0000012F2DE046A8>,214.5810904999962,None,214.5810904999962,None,312.4150321999914,355.89410969999153,None,361.07723139999143,None,365.54377069999464,None,008,001,2022_Jun_14_1523,2leo,2021.2.3,59.377839000567086,
3,40,Plan to see a sports event ,Stimuli/40A1.jpg,Stimuli/40A2.jpg,Stimuli/40A3.jpg,Stimuli/40B1.jpg,Stimuli/40B2.jpg,Stimuli/40B3.jpg,Stimuli/40C1.jpg,Stimuli/40C2.jpg,Stimuli/40C3.jpg,,,,,0,1,1,40,,,,,,,,371.46029279999493,None,372.4601258999901,None,378.46013229999517,None,"[0.306, 0.255]","[-0.377, 0.138]","[0.066, -0.395]","[0.07, 0.393]","[-0.378, -0.136]","[0.304, -0.26]","[0.399, -0.003]","[-0.2, 0.346]","[-0.203, -0.347]",,13.952384899996105,23.685870500004967,6.786681199999293,"[-0.22037037037037038, 0.2953703703703704, 0.11851851851851852]","[0.4203703703703704, 0.18981481481481483, 0.3851851851851852]","[1, 1, 1]","[0, 0, 0]","[0, 0, 0]","[6.782756700005848, 13.949059100006707, 23.682249599994975]",0.0029312999977264553,23.685018999996828,['A1'],['B1'],['C2'],['salmon'],['blue'],['yellow'],403.95931530000234,None,7.0,3.7301341999991564,403.95931530000234,None,424.7422898999939,None,2.0,2.6820026000059443,407.90926139999647,None,6.0,13.881383200001437,421.69229199999245,None,8.0,3.064996900007827,<function functionImportanceB at 0x0000012F2E673EA0>,<function functionImportanceA at 0x0000012F2DE04EA0>,<function functionImportanceC at 0x0000012F2E673048>,,,1.0,3.2481229999975767,3.0,3.064996900007827,8.0,10.981150199993863,<function functiondiffC at 0x0000012F2E673BF8>,<function functiondiffB at 0x0000012F2E6731E0>,<function functiondiffA at 0x0000012F2E673B70>,,,,,379.793986699995,432.0087757000001,None,427.4087690000015,None,442.97504609999305,None,008,001,2022_Jun_14_1523,2leo,2021.2.3,59.377839000567086,
3,25,Plan how you want to read a book in your free time ,Stimuli/25A1.jpg,Stimuli/25A2.jpg,Stimuli/25A3.jpg,Stimuli/25B1.jpg,Stimuli/25B2.jpg,Stimuli/25B3.jpg,Stimuli/25C1.jpg,Stimuli/25C2.jpg,Stimuli/25C3.jpg,,,,,0,2,2,25,,,,,,,,445.7415017000021,None,446.7416646999918,None,452.74165840000205,None,"[0.399, -0.003]","[-0.2, 0.346]","[-0.203, -0.347]","[0.07, 0.393]","[-0.378, -0.136]","[0.304, -0.26]","[0.306, 0.255]","[-0.377, 0.138]","[0.066, -0.395]",,15.585270850002416,6.219228850008221,19.75247195000702,"[-0.3416666666666667, -0.2351851851851852, 0.08055555555555556]","[-0.09166666666666666, 0.32685185185185184, -0.38981481481481484]","[1, 1, 1]","[0, 0, 0]","[0, 0, 0]","[6.214925099993707, 15.581233999997494, 19.747830299995258]",0.0035442500084172934,19.751263450001716,['A2'],['B2'],['C3'],['blue'],['yellow'],['salmon'],474.45739529999264,None,9.0,2.130233200005023,474.45739529999264,None,488.05719520000275,None,8.0,2.9651003000035416,482.70722569999634,None,10.0,5.065198200012674,476.65721959999064,None,10.0,5.9979580999934115,<function functionImportanceA at 0x0000012F2E673D08>,<function functionImportanceB at 0x0000012F2E6736A8>,<function functionImportanceC at 0x0000012F2E673598>,,,5.0,2.7650630999996793,2.0,5.9979580999934115,0.0,4.1147138999949675,<function functiondiffB at 0x0000012F2DE049D8>,<function functiondiffC at 0x0000012F2E673158>,<function functiondiffA at 0x0000012F2DE04620>,,,,,454.2394757000002,490.7237851999962,None,494.92358439999225,None,498.1068088999891,None,008,001,2022_Jun_14_1523,2leo,2021.2.3,59.377839000567086,
3,41,Plan how you want to have dinner tonight ,Stimuli/41A1.jpg,Stimuli/41A2.jpg,Stimuli/41A3.jpg,Stimuli/41B1.jpg,Stimuli/41B2.jpg,Stimuli/41B3.jpg,Stimuli/41C1.jpg,Stimuli/41C2.jpg,Stimuli/41C3.jpg,,,,,0,3,3,41,,,,,,,,500.40710719999333,None,501.4068021999992,None,507.40674999999464,None,"[-0.377, 0.138]","[0.306, 0.255]","[0.066, -0.395]","[-0.2, 0.346]","[0.399, -0.003]","[-0.203, -0.347]","[-0.378, -0.136]","[0.07, 0.393]","[0.304, -0.26]",,16.631874449987663,17.998357949996716,7.3657486499869265,"[0.3111111111111111, 0.30277777777777776, -0.17314814814814813]","[-0.24351851851851852, 0.23055555555555557, 0.2638888888888889]","[1, 1, 1]","[0, 0, 0]","[0, 0, 0]","[7.363570800007437, 16.630357100002584, 17.996537500002887]",0.0010239499970339239,17.997518849995686,['A2'],['B1'],['C3'],['yellow'],['salmon'],['blue'],527.239291299993,None,9.0,2.480291200001375,527.239291299993,None,545.1224206999905,None,9.0,3.815141900005983,529.7893579999945,None,6.0,9.314483299996937,539.1392300000007,None,9.0,5.7990705000120215,<function functionImportanceB at 0x0000012F2E6737B8>,<function functionImportanceA at 0x0000012F2E673C80>,<function functionImportanceC at 0x0000012F2E673A60>,,,3.0,5.280880299993441,3.0,5.7990705000120215,3.0,4.53150490000553,<function functiondiffA at 0x0000012F2E6730D0>,<function functiondiffB at 0x0000012F2E673488>,<function functiondiffC at 0x0000012F2DE04510>,,,,,508.75776549999136,554.0388097999967,None,558.6220974000025,None,548.7389884000004,None,008,001,2022_Jun_14_1523,2leo,2021.2.3,59.377839000567086,
3,24,Plan your Monday morning on a workday ,Stimuli/24A1.jpg,Stimuli/24A2.jpg,Stimuli/24A3.jpg,Stimuli/24B1.jpg,Stimuli/24B2.jpg,Stimuli/24B3.jpg,Stimuli/24C1.jpg,Stimuli/24C2.jpg,Stimuli/24C3.jpg,,,,,0,4,4,24,,,,,,,,561.4384666999977,None,562.4385955999896,None,568.4384983999917,None,"[0.399, -0.003]","[-0.203, -0.347]","[-0.2, 0.346]","[0.306, 0.255]","[0.066, -0.395]","[-0.377, 0.138]","[0.07, 0.393]","[0.304, -0.26]","[-0.378, -0.136]",,12.605834000001778,8.322560499989777,20.289225799991982,"[0.05185185185185185, -0.2462962962962963, 0.08055555555555556]","[-0.35648148148148145, 0.29074074074074074, 0.3537037037037037]","[1, 1, 1]","[0, 0, 0]","[0, 0, 0]","[8.318248800002038, 12.601693100004923, 20.284769699996104]",0.0035568999883253127,20.288122300000396,['A3'],['B2'],['C1'],['salmon'],['yellow'],['blue'],590.3376591999986,None,8.0,2.6138197999971453,590.3376591999986,None,593.0210648999928,None,7.0,5.947692600006121,598.9877104999905,None,3.0,4.79728330000944,603.7876164999907,None,7.0,4.548209100001259,<function functionImportanceC at 0x0000012F00301158>,<function functionImportanceB at 0x0000012F00301048>,<function functionImportanceA at 0x0000012F2E673AE8>,,,1.0,2.8314093999942997,9.0,4.548209100001259,5.0,4.747373000005609,<function functiondiffB at 0x0000012F2DE04488>,<function functiondiffC at 0x0000012F2E6738C8>,<function functiondiffA at 0x0000012F226F0E18>,,,,,569.567962599991,608.3375528999895,None,613.1041246999957,None,615.8872574999987,None,008,001,2022_Jun_14_1523,2leo,2021.2.3,59.377839000567086,
3,9,Plan a picnic with friends,Stimuli/9A1.jpg,Stimuli/9A2.jpg,Stimuli/9A3.jpg,Stimuli/9B1.jpg,Stimuli/9B2.jpg,Stimuli/9B3.jpg,Stimuli/9C1.jpg,Stimuli/9C2.jpg,Stimuli/9C3.jpg,,,,,0,5,5,9,,,,,,,,618.2371637999895,None,619.2369525999966,None,625.2369997999922,None,"[0.066, -0.395]","[0.306, 0.255]","[-0.377, 0.138]","[0.304, -0.26]","[0.07, 0.393]","[-0.378, -0.136]","[-0.203, -0.347]","[0.399, -0.003]","[-0.2, 0.346]",,13.528990849925322,4.596211649928591,15.995886849923409,"[0.3, 0.10092592592592593, -0.18796296296296297]","[-0.2, -0.40925925925925927, 0.3037037037037037]","[1, 1, 1]","[0, 0, 0]","[0, 0, 0]","[4.5830246999976225, 13.51607860000513, 15.982296000001952]",0.012513149922597222,15.994723149924539,['A1'],['B1'],['C3'],['salmon'],['yellow'],['blue'],647.1195211000013,None,10.0,2.4140316999983042,647.1195211000013,None,651.0710390000022,None,7.0,5.9645501999912085,656.8862915999925,None,5.0,7.748516499996185,664.8690862999938,None,8.0,4.39847600000212,<function functionImportanceC at 0x0000012F00301268>,<function functionImportanceB at 0x0000012F00301C80>,<function functionImportanceA at 0x0000012F00301D08>,,,1.0,17.01383509999141,7.0,4.39847600000212,1.0,10.514559700008249,<function functiondiffC at 0x0000012F00301AE8>,<function functiondiffB at 0x0000012F2E673268>,<function functiondiffA at 0x0000012F2E673D90>,,,,,630.6729478999914,671.6691228999989,None,668.2025405000022,None,682.3037205,None,008,001,2022_Jun_14_1523,2leo,2021.2.3,59.377839000567086,
3,5,Plan a birthday party for your younger self when you turn eight,Stimuli/5A1.jpg,Stimuli/5A2.jpg,Stimuli/5A3.jpg,Stimuli/5B1.jpg,Stimuli/5B2.jpg,Stimuli/5B3.jpg,Stimuli/5C1.jpg,Stimuli/5C2.jpg,Stimuli/5C3.jpg,,,,,0,6,6,5,,,,,,,,698.3515793999977,None,699.3516244999919,None,705.3516559999989,None,"[-0.2, 0.346]","[-0.203, -0.347]","[0.399, -0.003]","[-0.378, -0.136]","[0.304, -0.26]","[0.07, 0.393]","[-0.377, 0.138]","[0.066, -0.395]","[0.306, 0.255]",,18.778242949934793,24.67868764992454,13.695868049922865,"[-0.33425925925925926, -0.15092592592592594, 0.3537037037037037]","[0.16018518518518518, 0.4, -0.2898148148148148]","[1, 1, 1]","[0, 0, 0]","[0, 0, 0]","[13.687932600005297, 18.770863600002485, 24.670939900010126]",0.00697964993014466,24.677679849934066,['A1'],['B2'],['C1'],['blue'],['salmon'],['yellow'],736.4673006999947,None,9.0,3.2470260999980383,736.4673006999947,None,747.5836538000003,None,8.0,4.064925400001812,752.5169651999895,None,2.0,7.298537800001213,742.4172250999982,None,5.0,7.097689700007322,<function functionImportanceA at 0x0000012F003016A8>,<function functionImportanceC at 0x0000012F00301378>,<function functionImportanceB at 0x0000012F00301620>,,,2.0,7.114017100000638,2.0,7.097689700007322,8.0,4.097670000002836,<function functiondiffB at 0x0000012F2E673E18>,<function functiondiffA at 0x0000012F2AE699D8>,<function functiondiffC at 0x0000012F2E673840>,,,,,711.3341473999899,758.600137699992,None,769.6497671999969,None,763.1501139000029,None,008,001,2022_Jun_14_1523,2leo,2021.2.3,59.377839000567086,
3,8,Plan the interior of your living-room ,Stimuli/8A1.jpg,Stimuli/8A2.jpg,Stimuli/8A3.jpg,Stimuli/8B1.jpg,Stimuli/8B2.jpg,Stimuli/8B3.jpg,Stimuli/8C1.jpg,Stimuli/8C2.jpg,Stimuli/8C3.jpg,,,,,0,7,7,8,,,,,,,,774.4997851999942,None,775.4997238999931,None,781.4995437000034,None,"[-0.377, 0.138]","[0.306, 0.255]","[0.066, -0.395]","[-0.378, -0.136]","[0.07, 0.393]","[0.304, -0.26]","[-0.2, 0.346]","[0.399, -0.003]","[-0.203, -0.347]",,16.763134799941326,27.629812199942535,26.863631099942722,"[-0.44074074074074077, -0.2, -0.40555555555555556]","[0.16666666666666666, 0.34444444444444444, -0.09907407407407408]","[1, 1, 1]","[0, 0, 0]","[0, 0, 0]","[16.751976600004127, 26.85190359999251, 27.61833640000259]",0.010713799943914637,27.628838299948256,['A1'],['B1'],['C1'],['salmon'],['yellow'],['blue'],814.5650454999995,None,10.0,2.264333799990709,814.5650454999995,None,825.431760499996,None,9.0,7.648269600002095,818.7484494999953,None,9.0,6.563973800002714,831.2312821999949,None,8.0,4.831814999997732,<function functionImportanceB at 0x0000012F00301730>,<function functionImportanceC at 0x0000012F003011E0>,<function functionImportanceA at 0x0000012F003010D0>,,,0.0,3.3481371000088984,2.0,4.831814999997732,2.0,4.231313199998112,<function functiondiffA at 0x0000012F00301B70>,<function functiondiffC at 0x0000012F00301840>,<function functiondiffB at 0x0000012F00301598>,,,,,786.4791895999952,844.0479657999967,None,839.881292399994,None,835.9647699999914,None,008,001,2022_Jun_14_1523,2leo,2021.2.3,59.377839000567086,
3,15,Plan your own Pasta for lunch,Stimuli/15A1.jpg,Stimuli/15A2.jpg,Stimuli/15A3.jpg,Stimuli/15B1.jpg,Stimuli/15B2.jpg,Stimuli/15B3.jpg,Stimuli/15C1.jpg,Stimuli/15C2.jpg,Stimuli/15C3.jpg,,,,,0,8,8,15,,,,,,,,847.2808661000017,None,848.2811438999925,None,854.2810029999964,None,"[0.399, -0.003]","[-0.203, -0.347]","[-0.2, 0.346]","[0.306, 0.255]","[0.066, -0.395]","[-0.377, 0.138]","[0.07, 0.393]","[0.304, -0.26]","[-0.378, -0.136]",,22.945181149989367,24.44509844998538,27.87855964998016,"[-0.21296296296296297, 0.0712962962962963, 0.2712962962962963]","[0.3814814814814815, -0.3490740740740741, -0.3074074074074074]","[1, 1, 1]","[0, 0, 0]","[0, 0, 0]","[22.941954300011275, 24.441660800002865, 27.874940300011076]",0.002647449990035966,27.877453849985613,['A3'],['B2'],['C2'],['blue'],['salmon'],['yellow'],884.5965838999982,None,10.0,2.697542699999758,884.5965838999982,None,888.1466663000028,None,8.0,4.948134999998729,898.4297710999963,None,9.0,3.5650979000056395,892.3978074999904,None,2.0,6.048634200007655,<function functionImportanceC at 0x0000012F008A3598>,<function functionImportanceA at 0x0000012F00301EA0>,<function functionImportanceB at 0x0000012F00301400>,,,6.0,3.2478441999992356,9.0,6.048634200007655,7.0,7.581418799993116,<function functiondiffC at 0x0000012F2DE04730>,<function functiondiffA at 0x0000012F2E673730>,<function functiondiffB at 0x0000012F2E673950>,,,,,856.2505907000013,909.7128323999932,None,902.0797205999988,None,906.4463140000007,None,008,001,2022_Jun_14_1523,2leo,2021.2.3,59.377839000567086,
3,6,Plan your wedding,Stimuli/6A1.jpg,Stimuli/6A2.jpg,Stimuli/6A3.jpg,Stimuli/6B1.jpg,Stimuli/6B2.jpg,Stimuli/6B3.jpg,Stimuli/6C1.jpg,Stimuli/6C2.jpg,Stimuli/6C3.jpg,,,,,0,9,9,6,,,,,,,,916.8124406999996,None,917.8125421000004,None,923.8126558999938,None,"[0.066, -0.395]","[-0.377, 0.138]","[0.306, 0.255]","[-0.203, -0.347]","[-0.2, 0.346]","[0.399, -0.003]","[0.304, -0.26]","[-0.378, -0.136]","[0.07, 0.393]",,35.85846254993521,24.07582934993843,36.525875549938064,"[-0.21574074074074073, 0.09814814814814815, -0.3574074074074074]","[-0.41574074074074074, -0.36944444444444446, -0.1388888888888889]","[1, 1, 1]","[0, 0, 0]","[0, 0, 0]","[24.065608499993687, 35.84847709999303, 36.51533769999514]",0.009552149931550957,36.524588249929366,['A1'],['B1'],['C2'],['salmon'],['blue'],['yellow'],965.9611827999906,None,8.0,4.896961299993563,965.9611827999906,None,978.7274308999913,None,10.0,3.598246699999436,972.5776774999977,None,7.0,6.530923500002245,982.2455610999896,None,9.0,6.665049500006717,<function functionImportanceB at 0x0000012F00301488>,<function functionImportanceC at 0x0000012F003019D8>,<function functionImportanceA at 0x0000012F00301510>,,,9.0,2.9311980999918887,7.0,6.665049500006717,2.0,5.264614800005802,<function functiondiffB at 0x0000012F00301E18>,<function functiondiffA at 0x0000012F00301D90>,<function functiondiffC at 0x0000012F008A3620>,,,,,928.9797716999892,988.1274470999924,None,996.3604979999945,None,993.3272710000019,None,008,001,2022_Jun_14_1523,2leo,2021.2.3,59.377839000567086,
3,0,Plan a barbecue,Stimuli/0A1.jpg,Stimuli/0A2.jpg,Stimuli/0A3.jpg,Stimuli/0B1.jpg,Stimuli/0B2.jpg,Stimuli/0B3.jpg,Stimuli/0C1.jpg,Stimuli/0C2.jpg,Stimuli/0C3.jpg,,,,,0,10,10,0,,,,,,,,998.7270215000026,None,999.7270912999957,None,1005.7269631999952,None,"[0.07, 0.393]","[-0.378, -0.136]","[0.304, -0.26]","[0.306, 0.255]","[-0.377, 0.138]","[0.066, -0.395]","[0.399, -0.003]","[-0.2, 0.346]","[-0.203, -0.347]",,16.072135849972256,17.805374249976012,20.422286949979025,"[-0.3814814814814815, 0.20833333333333334, 0.2601851851851852, 0.41574074074074074]","[-0.1925925925925926, 0.20555555555555555, 0.21666666666666667, 0.013888888888888888]","[1, 1, 1, 1]","[0, 0, 0, 0]","[0, 0, 0, 0]","[16.06093229999533, 17.12714219999907, 17.794033600002876, 20.410611200000858]",0.01068314997246489,20.421220849981182,['A2'],['B1'],['C1'],['salmon'],['yellow'],['blue'],1029.1427799999947,None,8.0,1.980564500001492,1029.1427799999947,None,1031.2261921000027,None,10.0,2.9975726999982726,1043.3094484999892,None,3.0,3.698235799995018,1035.5926889999973,None,9.0,9.031745700005558,<function functionImportanceC at 0x0000012F008A3D08>,<function functionImportanceA at 0x0000012F003017B8>,<function functionImportanceB at 0x0000012F008A3D90>,,,8.0,5.548198100004811,1.0,9.031745700005558,2.0,4.680359300007694,<function functiondiffB at 0x0000012F00301BF8>,<function functiondiffC at 0x0000012F008A39D8>,<function functiondiffA at 0x0000012F00301F28>,,,,,1008.2624656999978,1046.9425934000028,None,1051.6426363999926,None,1060.2421300999995,None,008,001,2022_Jun_14_1523,2leo,2021.2.3,59.377839000567086,
3,7,Plan your Sunday breakfast ,Stimuli/7A1.jpg,Stimuli/7A2.jpg,Stimuli/7A3.jpg,Stimuli/7B1.jpg,Stimuli/7B2.jpg,Stimuli/7B3.jpg,Stimuli/7C1.jpg,Stimuli/7C2.jpg,Stimuli/7C3.jpg,,,,,0,11,11,7,,,,,,,,1064.9252471999935,None,1065.9251840999932,None,1071.9254375000019,None,"[0.306, 0.255]","[-0.377, 0.138]","[0.066, -0.395]","[0.07, 0.393]","[-0.378, -0.136]","[0.304, -0.26]","[0.399, -0.003]","[-0.2, 0.346]","[-0.203, -0.347]",,8.52087209992169,12.170735099920421,17.654262699914398,"[-0.37037037037037035, 0.13796296296296295, 0.36018518518518516]","[0.11851851851851852, 0.4, -0.046296296296296294]","[1, 1, 1]","[0, 0, 0]","[0, 0, 0]","[8.508579200002714, 12.158284100005403, 17.64150630000222]",0.011790999909862876,17.65318059991114,['A2'],['B1'],['C1'],['yellow'],['blue'],['salmon'],1096.0912449000025,None,10.0,2.3472248000034597,1096.0912449000025,None,1106.7410958999972,None,3.0,4.381926999994903,1111.840878499992,None,9.0,8.448327199992491,1100.357942799994,None,9.0,7.031165099993814,<function functionImportanceA at 0x0000012F008A3488>,<function functionImportanceC at 0x0000012F008A3400>,<function functionImportanceB at 0x0000012F008A3B70>,,,3.0,5.030984500001068,7.0,7.031165099993814,-0.0,5.614778000002843,<function functiondiffA at 0x0000012F008A37B8>,<function functiondiffC at 0x0000012F008A38C8>,<function functiondiffB at 0x0000012F008A3A60>,,,,,1077.9858480999974,1129.0737253999978,None,1123.7737912000011,None,1118.907184399999,None,008,001,2022_Jun_14_1523,2leo,2021.2.3,59.377839000567086,
3,29,Plan a day in the mountains ,Stimuli/29A1.jpg,Stimuli/29A2.jpg,Stimuli/29A3.jpg,Stimuli/29B1.jpg,Stimuli/29B2.jpg,Stimuli/29B3.jpg,Stimuli/29C1.jpg,Stimuli/29C2.jpg,Stimuli/29C3.jpg,,,,,0,12,12,29,,,,,,,,1133.5400595999963,None,1134.5401727999997,None,1140.5401603999926,None,"[0.304, -0.26]","[-0.378, -0.136]","[0.07, 0.393]","[0.066, -0.395]","[-0.377, 0.138]","[0.306, 0.255]","[-0.203, -0.347]","[-0.2, 0.346]","[0.399, -0.003]",,21.563945749992854,16.397469149989774,8.514201250000042,"[-0.1814814814814815, 0.08611111111111111, -0.387037037037037]","[-0.41203703703703703, -0.3435185185185185, -0.14907407407407408]","[1, 1, 1]","[0, 0, 0]","[0, 0, 0]","[8.504978700002539, 16.388471900005243, 21.555134099995485]",0.00826654999400489,21.563058649990126,['A2'],['B1'],['C1'],['blue'],['salmon'],['yellow'],1163.8225460999965,None,9.0,3.0470435000024736,1163.8225460999965,None,1174.5392113999987,None,7.0,5.8982515999960015,1180.4724548999948,None,7.0,2.515217100008158,1167.0558609,None,9.0,7.547981000010623,<function functionImportanceA at 0x0000012F008A3950>,<function functionImportanceC at 0x0000012F008A3F28>,<function functionImportanceB at 0x0000012F008A3730>,,,3.0,3.5808833000046434,3.0,7.547981000010623,1.0,2.497975899997982,<function functiondiffA at 0x0000012F008A3AE8>,<function functiondiffB at 0x0000012F008A3048>,<function functiondiffC at 0x0000012F008A3E18>,,,,,1141.7839051999908,1186.5222256999987,None,1189.0388075999945,None,1182.9390502000024,None,008,001,2022_Jun_14_1523,2leo,2021.2.3,59.377839000567086,
3,18,Plan your Saturday night ,Stimuli/18A1.jpg,Stimuli/18A2.jpg,Stimuli/18A3.jpg,Stimuli/18B1.jpg,Stimuli/18B2.jpg,Stimuli/18B3.jpg,Stimuli/18C1.jpg,Stimuli/18C2.jpg,Stimuli/18C3.jpg,,,,,0,13,13,18,,,,,,,,1192.122061499991,None,1193.121817799998,None,1199.1219979000016,None,"[0.306, 0.255]","[-0.377, 0.138]","[0.066, -0.395]","[0.07, 0.393]","[-0.378, -0.136]","[0.304, -0.26]","[0.399, -0.003]","[-0.2, 0.346]","[-0.203, -0.347]",,4.027664299981552,8.094311399981962,11.278008199980832,"[-0.32592592592592595, 0.08703703703703704, 0.38981481481481484]","[0.08796296296296297, 0.42314814814814816, 0.020370370370370372]","[1, 1, 1]","[0, 0, 0]","[0, 0, 0]","[4.01283059999696, 8.079264699990745, 11.262756399999489]",0.014341899994178675,11.27676869998686,['A2'],['B1'],['C1'],['blue'],['salmon'],['yellow'],1211.9880705999967,None,10.0,1.9468968000001041,1211.9880705999967,None,1222.3213717000035,None,2.0,4.198527800006559,1218.621370199995,None,10.0,3.648809100006474,1214.004671799994,None,9.0,4.631095200005802,<function functionImportanceA at 0x0000012F2E673F28>,<function functionImportanceB at 0x0000012F008A3EA0>,<function functionImportanceC at 0x0000012F003018C8>,,,0.0,5.631317200008198,2.0,4.631095200005802,2.0,5.8481079999910435,<function functiondiffA at 0x0000012F008A3158>,<function functiondiffC at 0x0000012F2DE04158>,<function functiondiffB at 0x0000012F008A3378>,,,,,1200.2427796999982,1238.8875020999985,None,1232.1544165999949,None,1226.5045077999966,None,008,001,2022_Jun_14_1523,2leo,2021.2.3,59.377839000567086,
3,12,Plan the ingredients to mix yourself a cocktail,Stimuli/12A1.jpg,Stimuli/12A2.jpg,Stimuli/12A3.jpg,Stimuli/12B1.jpg,Stimuli/12B2.jpg,Stimuli/12B3.jpg,Stimuli/12C1.jpg,Stimuli/12C2.jpg,Stimuli/12C3.jpg,,,,,0,14,14,12,,,,,,,,1244.2706793999969,None,1245.270638899994,None,1251.270673299994,None,"[0.399, -0.003]","[-0.2, 0.346]","[-0.203, -0.347]","[0.07, 0.393]","[-0.378, -0.136]","[0.304, -0.26]","[0.306, 0.255]","[-0.377, 0.138]","[0.066, -0.395]",,16.039172599994345,13.872979799998575,10.056746999995084,"[0.001851851851851852, -0.41574074074074074, 0.35185185185185186]","[-0.3388888888888889, -0.17037037037037037, -0.021296296296296296]","[1, 1, 1]","[0, 0, 0]","[0, 0, 0]","[10.043555599986576, 13.860096599993994, 16.02662769999006]",0.012134999997215346,16.038438599993242,['A1'],['B2'],['C3'],['blue'],['salmon'],['yellow'],1268.9364785999933,None,10.0,1.7969363000011072,1268.9364785999933,None,1274.6696711999975,None,9.0,12.998417599999812,1270.8031744000036,None,8.0,3.847765899990918,1287.7028831999924,None,9.0,2.331972699990729,<function functionImportanceB at 0x0000012F00DED378>,<function functionImportanceC at 0x0000012F00DED488>,<function functionImportanceA at 0x0000012F008A3C80>,,,1.0,3.7809992999973474,3.0,2.331972699990729,2.0,2.397803300002124,<function functiondiffA at 0x0000012F008A32F0>,<function functiondiffB at 0x0000012F00DED7B8>,<function functiondiffC at 0x0000012F00DED268>,,,,,1252.4245089999895,1293.8026998999994,None,1296.2192945999996,None,1290.0029282000032,None,008,001,2022_Jun_14_1523,2leo,2021.2.3,59.377839000567086,
3,26,Plan how to wash one round of your laundry ,Stimuli/26A1.jpg,Stimuli/26A2.jpg,Stimuli/26A3.jpg,Stimuli/26B1.jpg,Stimuli/26B2.jpg,Stimuli/26B3.jpg,Stimuli/26C1.jpg,Stimuli/26C2.jpg,Stimuli/26C3.jpg,,,,,0,15,15,26,,,,,,,,1377.6339241999958,None,1378.6338885000005,None,1384.6337345999927,None,"[0.07, 0.393]","[0.304, -0.26]","[-0.378, -0.136]","[0.306, 0.255]","[0.066, -0.395]","[-0.377, 0.138]","[0.399, -0.003]","[-0.203, -0.347]","[-0.2, 0.346]",,12.701956599994446,24.185071299987612,6.602342199985287,"[0.44074074074074077, 0.37592592592592594, -0.3611111111111111]","[-0.02962962962962963, -0.22685185185185186, 0.11203703703703703]","[1, 1, 1]","[0, 0, 0]","[0, 0, 0]","[6.5996967000100994, 12.699790700004087, 24.182568800009903]",0.0016214999923249707,24.184089399990626,['A2'],['B3'],['C1'],['yellow'],['salmon'],['blue'],1410.4328775999893,None,9.0,2.463609499987797,1410.4328775999893,None,1425.0992722999945,None,2.0,3.331362999990233,1412.9496021999948,None,8.0,7.71464580000611,1420.6836647000018,None,7.0,4.398195000001579,<function functionImportanceB at 0x0000012F00DED950>,<function functionImportanceA at 0x0000012F00DEDA60>,<function functionImportanceC at 0x0000012F00DEDD08>,,,1.0,3.231092099988018,-0.0,4.398195000001579,7.0,4.481249500007834,<function functiondiffC at 0x0000012F00DED510>,<function functiondiffA at 0x0000012F008A36A8>,<function functiondiffB at 0x0000012F008A31E0>,,,,,1385.766321899995,1436.2823138999956,None,1428.4325323999947,None,1433.032500699992,None,008,001,2022_Jun_14_1523,2leo,2021.2.3,59.377839000567086,
3,4,Plan a game night at your place,Stimuli/4A1.jpg,Stimuli/4A2.jpg,Stimuli/4A3.jpg,Stimuli/4B1.jpg,Stimuli/4B2.jpg,Stimuli/4B3.jpg,Stimuli/4C1.jpg,Stimuli/4C2.jpg,Stimuli/4C3.jpg,,,,,0,16,16,4,,,,,,,,1440.2820274999976,None,1441.2822296999948,None,1447.2822134000016,None,"[0.399, -0.003]","[-0.203, -0.347]","[-0.2, 0.346]","[0.306, 0.255]","[0.066, -0.395]","[-0.377, 0.138]","[0.07, 0.393]","[0.304, -0.26]","[-0.378, -0.136]",,10.161349199974211,11.628076099965256,8.595060399966314,"[-0.3768518518518518, -0.24351851851851852, -0.34629629629629627]","[-0.08518518518518518, 0.2953703703703704, 0.14074074074074075]","[1, 1, 1]","[0, 0, 0]","[0, 0, 0]","[8.584329199991771, 10.151146799995331, 11.617604200000642]",0.009612799971364439,11.62709429996903,['A3'],['B3'],['C3'],['salmon'],['yellow'],['blue'],1462.7648005999945,None,10.0,3.8137630999990506,1462.7648005999945,None,1480.3475047999964,None,10.0,6.431181200008723,1472.9646632999938,None,9.0,6.048294799998985,1467.6327634999907,None,6.0,6.3309394999960205,<function functionImportanceA at 0x0000012F00DED048>,<function functionImportanceB at 0x0000012F00DED840>,<function functionImportanceC at 0x0000012F00DED9D8>,,,2.0,2.9450608999904944,-0.0,6.3309394999960205,5.0,5.181216700002551,<function functiondiffB at 0x0000012F2DE040D0>,<function functiondiffC at 0x0000012F00DED598>,<function functiondiffA at 0x0000012F008A3268>,,,,,1450.6814691000036,1485.4811418000027,None,1491.0310248000023,None,1493.4307610999967,None,008,001,2022_Jun_14_1523,2leo,2021.2.3,59.377839000567086,
3,32,Plan how you want to relax after a workday,Stimuli/32A1.jpg,Stimuli/32A2.jpg,Stimuli/32A3.jpg,Stimuli/32B1.jpg,Stimuli/32B2.jpg,Stimuli/32B3.jpg,Stimuli/32C1.jpg,Stimuli/32C2.jpg,Stimuli/32C3.jpg,,,,,0,17,17,32,,,,,,,,1495.599065699993,None,1496.6140505999938,None,1502.6137977000035,None,"[-0.378, -0.136]","[0.07, 0.393]","[0.304, -0.26]","[-0.377, 0.138]","[0.306, 0.255]","[0.066, -0.395]","[-0.2, 0.346]","[0.399, -0.003]","[-0.203, -0.347]",,30.580851749982685,21.698214949981775,11.298931049983366,"[-0.22870370370370371, -0.3527777777777778, -0.38981481481481484]","[-0.29814814814814816, 0.07407407407407407, -0.1712962962962963]","[1, 1, 1]","[0, 0, 0]","[0, 0, 0]","[11.296117000005324, 21.695825000002515, 30.578724999999395]",0.001693249971140176,30.5802518499695,['A1'],['B1'],['C3'],['salmon'],['blue'],['yellow'],1536.779555599991,None,10.0,1.9971806999965338,1536.779555599991,None,1562.2623241999972,None,10.0,7.648229400001583,1539.615310299996,None,9.0,17.830722600003355,1557.8288447999948,None,7.0,5.514863899996271,<function functionImportanceB at 0x0000012F00301950>,<function functionImportanceA at 0x0000012F003012F0>,<function functionImportanceC at 0x0000012F008A3510>,,,9.0,3.647876200004248,-0.0,5.514863899996271,1.0,5.147956200002227,<function functiondiffC at 0x0000012F008A30D0>,<function functiondiffB at 0x0000012F00DEDBF8>,<function functiondiffA at 0x0000012F00DEDD90>,,,,,1505.7348324999912,1573.2286110999994,None,1569.8454073999892,None,1578.5453997000004,None,008,001,2022_Jun_14_1523,2leo,2021.2.3,59.377839000567086,
3,14,Plan your own Pizza for dinner,Stimuli/14A1.jpg,Stimuli/14A2.jpg,Stimuli/14A3.jpg,Stimuli/14B1.jpg,Stimuli/14B2.jpg,Stimuli/14B3.jpg,Stimuli/14C1.jpg,Stimuli/14C2.jpg,Stimuli/14C3.jpg,,,,,0,18,18,14,,,,,,,,1581.3782146000012,None,1582.378603499994,None,1588.3784198999929,None,"[0.07, 0.393]","[0.304, -0.26]","[-0.378, -0.136]","[0.399, -0.003]","[-0.203, -0.347]","[-0.2, 0.346]","[0.306, 0.255]","[0.066, -0.395]","[-0.377, 0.138]",,14.230543049998232,12.29744125000434,8.014633150000009,"[-0.3398148148148148, 0.3824074074074074, 0.30648148148148147]","[0.13425925925925927, -0.01574074074074074, -0.1814814814814815]","[1, 1, 1]","[0, 0, 0]","[0, 0, 0]","[7.996826799993869, 12.280257299993536, 14.213509099994553]",0.016479149999213405,14.229836650003563,['A2'],['B1'],['C3'],['yellow'],['blue'],['salmon'],1604.2777146000008,None,10.0,1.980099100008374,1604.2777146000008,None,1606.3111888999993,None,10.0,5.181151800003136,1615.4108582999907,None,10.0,3.4649075999914203,1611.5611173999932,None,7.0,3.7981280999956653,<function functionImportanceC at 0x0000012F012B4378>,<function functionImportanceA at 0x0000012F012B4840>,<function functionImportanceB at 0x0000012F012B4950>,,,5.0,4.698295399997733,-0.0,3.7981280999956653,-0.0,2.6979105999926105,<function functiondiffC at 0x0000012F00DED8C8>,<function functiondiffB at 0x0000012F00DEDAE8>,<function functiondiffA at 0x0000012F00DEDE18>,,,,,1589.5783991999924,1622.1775572999904,None,1618.794261499992,None,1624.8772576999909,None,008,001,2022_Jun_14_1523,2leo,2021.2.3,59.377839000567086,
3,36,Plan your shopping for new clothing,Stimuli/36A1.jpg,Stimuli/36A2.jpg,Stimuli/36A3.jpg,Stimuli/36B1.jpg,Stimuli/36B2.jpg,Stimuli/36B3.jpg,Stimuli/36C1.jpg,Stimuli/36C2.jpg,Stimuli/36C3.jpg,,,,,0,19,19,36,,,,,,,,1629.0937224999943,None,1630.093773200002,None,1636.0938344000024,None,"[0.07, 0.393]","[-0.378, -0.136]","[0.304, -0.26]","[0.399, -0.003]","[-0.2, 0.346]","[-0.203, -0.347]","[0.306, 0.255]","[-0.377, 0.138]","[0.066, -0.395]",,14.57607255000039,22.59252035000827,15.876210050002555,"[0.32222222222222224, -0.3888888888888889, -0.1527777777777778]","[-0.25462962962962965, 0.0787037037037037, -0.3111111111111111]","[1, 1, 1]","[0, 0, 0]","[0, 0, 0]","[14.561514599990915, 15.861498300000676, 22.57793299999321]",0.013715549997868948,22.59163515000546,['A3'],['B3'],['C2'],['salmon'],['yellow'],['blue'],1660.2929377999972,None,9.0,2.1638191000092775,1660.2929377999972,None,1667.4594663000025,None,4.0,4.315415499993833,1665.2260548999911,None,10.0,2.1987006999988807,1662.5263378999953,None,10.0,2.69801500000176,<function functionImportanceA at 0x0000012F012B4730>,<function functionImportanceB at 0x0000012F012B42F0>,<function functionImportanceC at 0x0000012F012B41E0>,,,7.0,4.980998200000613,1.0,2.69801500000176,9.0,2.380973899998935,<function functiondiffA at 0x0000012F008A3BF8>,<function functiondiffB at 0x0000012F00DEDB70>,<function functiondiffC at 0x0000012F012B4510>,,,,,1637.2293325999926,1676.7593246000033,None,1679.1427311000007,None,1671.75948719999,None,008,001,2022_Jun_14_1523,2leo,2021.2.3,59.377839000567086,
3,21,Plan your sandwich for lunch,Stimuli/21A1.jpg,Stimuli/21A2.jpg,Stimuli/21A3.jpg,Stimuli/21B1.jpg,Stimuli/21B2.jpg,Stimuli/21B3.jpg,Stimuli/21C1.jpg,Stimuli/21C2.jpg,Stimuli/21C3.jpg,,,,,0,20,20,21,,,,,,,,1680.992310799993,None,1681.9924889999966,None,1687.9922150999919,None,"[0.399, -0.003]","[-0.2, 0.346]","[-0.203, -0.347]","[0.306, 0.255]","[-0.377, 0.138]","[0.066, -0.395]","[0.07, 0.393]","[-0.378, -0.136]","[0.304, -0.26]",,12.77366125001572,19.90685265000502,17.657156150002265,"[-0.26481481481481484, -0.3277777777777778, -0.3574074074074074, 0.002777777777777778]","[-0.37407407407407406, -0.2361111111111111, -0.21666666666666667, -0.32314814814814813]","[1, 1, 1, 1]","[0, 0, 0, 0]","[0, 0, 0, 0]","[12.769020200008526, 16.752197300011176, 17.652086700007203, 19.90190940001048]",0.004040250001708046,19.905871650014888,['A3'],['B3'],['C2'],['blue'],['salmon'],['yellow'],1709.5250475999928,None,10.0,2.363500599996769,1709.5250475999928,None,1717.5248760999966,None,9.0,2.365096600013203,1714.6250004999893,None,10.0,2.8650770999956876,1711.9584673999925,None,10.0,2.664669200006756,<function functionImportanceA at 0x0000012F012B4F28>,<function functionImportanceB at 0x0000012F012B4048>,<function functionImportanceC at 0x0000012F012B4E18>,,,7.0,4.547691599989776,1.0,2.664669200006756,-0.0,3.064374299996416,<function functiondiffA at 0x0000012F012B4D90>,<function functiondiffB at 0x0000012F012B4AE8>,<function functiondiffC at 0x0000012F012B4B70>,,,,,1689.1376389999932,1724.441284200002,None,1727.5080450999958,None,1719.8582345999894,None,008,001,2022_Jun_14_1523,2leo,2021.2.3,59.377839000567086,
3,11,Plan a hike in nature on a free day,Stimuli/11A1.jpg,Stimuli/11A2.jpg,Stimuli/11A3.jpg,Stimuli/11B1.jpg,Stimuli/11B2.jpg,Stimuli/11B3.jpg,Stimuli/11C1.jpg,Stimuli/11C2.jpg,Stimuli/11C3.jpg,,,,,0,21,21,11,,,,,,,,1730.2077158999891,None,1731.2076180000004,None,1737.207813999994,None,"[0.066, -0.395]","[-0.377, 0.138]","[0.306, 0.255]","[-0.203, -0.347]","[-0.2, 0.346]","[0.399, -0.003]","[0.304, -0.26]","[-0.378, -0.136]","[0.07, 0.393]",,11.592776200006483,3.1947250999946846,7.660506400003214,"[-0.12407407407407407, -0.13240740740740742, 0.049074074074074076, -0.46296296296296297]","[0.42962962962962964, 0.375, 0.38333333333333336, 0.10925925925925926]","[1, 1, 1, 1]","[0, 0, 0, 0]","[0, 0, 0, 0]","[3.179905699988012, 4.461719499988249, 7.645339700000477, 11.578210099993157]",0.014075700004468672,11.59218089999922,['A2'],['B2'],['C3'],['yellow'],['salmon'],['blue'],1750.4238232999924,None,10.0,2.4475325999956112,1750.4238232999924,None,1756.3072285999951,None,3.0,4.131954099997529,1752.9403864999913,None,10.0,3.347727100001066,1760.4571446999907,None,9.0,1.7987480000010692,<function functionImportanceB at 0x0000012F012B46A8>,<function functionImportanceC at 0x0000012F012B4400>,<function functionImportanceA at 0x0000012F012B4598>,,,7.0,3.5643287999992026,1.0,1.7987480000010692,1.0,5.398245100004715,<function functiondiffA at 0x0000012F012B4488>,<function functiondiffB at 0x0000012F012B4268>,<function functiondiffC at 0x0000012F012B4BF8>,,,,,1738.3607363999909,1765.8236538999918,None,1771.2402666999988,None,1762.2403791999968,None,008,001,2022_Jun_14_1523,2leo,2021.2.3,59.377839000567086,
3,2,Plan which ingredients you want to use for cooking dinner today,Stimuli/2A1.jpg,Stimuli/2A2.jpg,Stimuli/2A3.jpg,Stimuli/2B1.jpg,Stimuli/2B2.jpg,Stimuli/2B3.jpg,Stimuli/2C1.jpg,Stimuli/2C2.jpg,Stimuli/2C3.jpg,,,,,0,22,22,2,,,,,,,,1773.8232676999905,None,1774.8232420999993,None,1780.8233077999903,None,"[0.304, -0.26]","[0.07, 0.393]","[-0.378, -0.136]","[0.066, -0.395]","[0.306, 0.255]","[-0.377, 0.138]","[-0.203, -0.347]","[0.399, -0.003]","[-0.2, 0.346]",,14.442498199918191,20.209112899916363,19.442871499908506,"[-0.32407407407407407, -0.30092592592592593, -0.29259259259259257, -0.22870370370370371, -0.2916666666666667]","[-0.17314814814814813, 0.39537037037037037, 0.38981481481481484, 0.3537037037037037, 0.22037037037037038]","[1, 1, 1, 1, 1]","[0, 0, 0, 0, 0]","[0, 0, 0, 0, 0]","[14.43593680000049, 18.252547300013248, 18.90236000000732, 19.4358241000009, 20.20223920000717]",0.005961699920590036,20.208179699911852,['A3'],['B3'],['C3'],['salmon'],['yellow'],['blue'],1807.5891228999972,None,10.0,2.080815100009204,1807.5891228999972,None,1824.6389248999913,None,8.0,6.9149538000056054,1818.7389544000034,None,9.0,8.598411099999794,1810.8224539999937,None,9.0,5.680626700006542,<function functionImportanceA at 0x0000012F00DED1E0>,<function functionImportanceB at 0x0000012F00301A60>,<function functionImportanceC at 0x0000012F012B4620>,,,2.0,4.164586600003531,3.0,5.680626700006542,7.0,5.297219500003848,<function functiondiffC at 0x0000012F2D0B19D8>,<function functiondiffA at 0x0000012F008A3840>,<function functiondiffB at 0x0000012F012B4EA0>,,,,,1786.9216185999976,1843.1382491999975,None,1831.1220420000027,None,1838.471762999994,None,008,001,2022_Jun_14_1523,2leo,2021.2.3,59.377839000567086,
3,3,Plan a movie night with a friend,Stimuli/3A1.jpg,Stimuli/3A2.jpg,Stimuli/3A3.jpg,Stimuli/3B1.jpg,Stimuli/3B2.jpg,Stimuli/3B3.jpg,Stimuli/3C1.jpg,Stimuli/3C2.jpg,Stimuli/3C3.jpg,,,,,0,23,23,3,,,,,,,,1847.1546511999913,None,1848.154689499992,None,1854.154852199994,None,"[-0.378, -0.136]","[0.304, -0.26]","[0.07, 0.393]","[-0.377, 0.138]","[0.066, -0.395]","[0.306, 0.255]","[-0.2, 0.346]","[-0.203, -0.347]","[0.399, -0.003]",,17.38060254995071,14.264764949955861,10.164903249955387,"[-0.18425925925925926, 0.3175925925925926, -0.3888888888888889]","[-0.2796296296296296, 0.2759259259259259, -0.14907407407407408]","[1, 1, 1]","[0, 0, 0]","[0, 0, 0]","[10.15100369999709, 14.250918699995964, 17.367290299996966]",0.012817049951991066,17.380135249943123,['A1'],['B3'],['C2'],['yellow'],['blue'],['salmon'],1875.670543699991,None,9.0,2.347432199996547,1875.670543699991,None,1885.7201551999897,None,5.0,5.581877399992663,1890.420115300003,None,10.0,4.431969800003571,1878.1208167000004,None,10.0,5.863966200005962,<function functionImportanceA at 0x0000012F00DED400>,<function functionImportanceC at 0x0000012F018FC9D8>,<function functionImportanceB at 0x0000012F018FCA60>,,,2.0,6.160035499997321,1.0,5.863966200005962,1.0,4.832496100003482,<function functiondiffB at 0x0000012F012B48C8>,<function functiondiffA at 0x0000012F012B4158>,<function functiondiffC at 0x0000012F012B49D8>,,,,,1857.8373544999922,1894.3369613999967,None,1905.3700781999942,None,1898.8368390999967,None,008,001,2022_Jun_14_1523,2leo,2021.2.3,59.377839000567086,
3,35,Plan how you want to do your grocery shopping ,Stimuli/35A1.jpg,Stimuli/35A2.jpg,Stimuli/35A3.jpg,Stimuli/35B1.jpg,Stimuli/35B2.jpg,Stimuli/35B3.jpg,Stimuli/35C1.jpg,Stimuli/35C2.jpg,Stimuli/35C3.jpg,,,,,0,24,24,35,,,,,,,,1908.6363118000008,None,1909.6365202000015,None,1915.636493500002,None,"[-0.377, 0.138]","[0.306, 0.255]","[0.066, -0.395]","[-0.378, -0.136]","[0.07, 0.393]","[0.304, -0.26]","[-0.2, 0.346]","[0.399, -0.003]","[-0.203, -0.347]",,29.342715449995012,37.97451134999574,35.241322249989025,"[0.023148148148148147, -0.1824074074074074, -0.40185185185185185]","[-0.4101851851851852, 0.32222222222222224, -0.16018518518518518]","[1, 1, 1]","[0, 0, 0]","[0, 0, 0]","[29.328220800001873, 35.226465100000496, 37.95993660000386]",0.013898149991291575,37.973520949992235,['A3'],['B1'],['C1'],['salmon'],['blue'],['yellow'],1955.351789399996,None,9.0,2.3802441000007093,1955.351789399996,None,1962.5351589999918,None,10.0,2.5321259000047576,1965.1350126000034,None,10.0,4.598681599993142,1957.8185785999958,None,7.0,4.664534900002764,<function functionImportanceA at 0x0000012F018FCF28>,<function functionImportanceC at 0x0000012F018FC378>,<function functionImportanceB at 0x0000012F018FCEA0>,,,2.0,2.331571400005487,-0.0,4.664534900002764,8.0,2.280941700009862,<function functiondiffC at 0x0000012F018FCB70>,<function functiondiffA at 0x0000012F018FCAE8>,<function functiondiffB at 0x0000012F018FC840>,,,,,1916.9076919999934,1986.0678906999965,None,1969.6183824000036,None,1983.7012908000033,None,008,001,2022_Jun_14_1523,2leo,2021.2.3,59.377839000567086,
3,37,Plan your cleaning routine ,Stimuli/37A1.jpg,Stimuli/37A2.jpg,Stimuli/37A3.jpg,Stimuli/37B1.jpg,Stimuli/37B2.jpg,Stimuli/37B3.jpg,Stimuli/37C1.jpg,Stimuli/37C2.jpg,Stimuli/37C3.jpg,,,,,0,25,25,37,,,,,,,,1987.8508981999912,None,1988.8511811999924,None,1994.8511672000022,None,"[-0.378, -0.136]","[0.304, -0.26]","[0.07, 0.393]","[-0.2, 0.346]","[-0.203, -0.347]","[0.399, -0.003]","[-0.377, 0.138]","[0.066, -0.395]","[0.306, 0.255]",,11.266275399990263,34.84922319998441,19.449723899990204,"[0.053703703703703705, 0.3148148148148148, -0.3888888888888889, -0.3388888888888889, -0.4046296296296296, -0.3712962962962963, -0.3490740740740741, -0.34629629629629627, -0.32592592592592595, -0.32685185185185184, 0.37592592592592594]","[0.3425925925925926, -0.25833333333333336, 0.04259259259259259, 0.07962962962962963, -0.1638888888888889, -0.15, -0.22962962962962963, -0.22592592592592592, -0.13518518518518519, -0.13518518518518519, 0.05648148148148148]","[1, 1, 1, 1, 1, 1, 1, 1, 1, 1, 1]","[0, 0, 0, 0, 0, 0, 0, 0, 0, 0, 0]","[0, 0, 0, 0, 0, 0, 0, 0, 0, 0, 0]","[11.265290399998776, 16.165221400005976, 18.015158499998506, 19.4484220000013, 26.081584700004896, 27.11490080000658, 27.73243230000662, 28.11497280000185, 28.58174570000847, 28.998440299998038, 34.84795799999847]",0.00037409998185466975,34.84828649998235,['A3'],['B3'],['C1'],['yellow'],['blue'],['salmon'],2031.3165872999962,None,7.0,4.2809417999960715,2031.3165872999962,None,2035.6498407999898,None,8.0,3.4980262000026414,2039.1665516999929,None,9.0,4.131643799992162,2043.3331135999906,None,5.0,5.715082899987465,<function functionImportanceC at 0x0000012F018FC6A8>,<function functionImportanceB at 0x0000012F018FC8C8>,<function functionImportanceA at 0x0000012F012B40D0>,,,8.0,4.431492900010198,1.0,5.715082899987465,8.0,2.9644089000066742,<function functiondiffC at 0x0000012F018FC0D0>,<function functiondiffA at 0x0000012F018FC2F0>,<function functiondiffB at 0x0000012F018FCC80>,,,,,1995.9854964999977,2057.0493373999925,None,2049.0328963999928,None,2052.5994697999995,None,008,001,2022_Jun_14_1523,2leo,2021.2.3,59.377839000567086,
3,33,Plan the items to decorate your Christmas tree,Stimuli/33A1.jpg,Stimuli/33A2.jpg,Stimuli/33A3.jpg,Stimuli/33B1.jpg,Stimuli/33B2.jpg,Stimuli/33B3.jpg,Stimuli/33C1.jpg,Stimuli/33C2.jpg,Stimuli/33C3.jpg,,,,,0,26,26,33,,,,,,,,2059.532413699999,None,2060.5325427999924,None,2066.53263419999,None,"[-0.378, -0.136]","[0.304, -0.26]","[0.07, 0.393]","[-0.377, 0.138]","[0.066, -0.395]","[0.306, 0.255]","[-0.2, 0.346]","[-0.203, -0.347]","[0.399, -0.003]",,14.955709149988252,17.805797849985538,19.989660149993142,"[-0.4046296296296296, 0.05277777777777778, 0.05462962962962963, 0.39814814814814814]","[-0.12314814814814815, -0.2814814814814815, -0.32407407407407407, 0.010185185185185186]","[1, 1, 1, 1]","[0, 0, 0, 0]","[0, 0, 0, 0]","[14.940407499991124, 16.190271999992547, 17.790215399989393, 19.9737635999918]",0.01484564998827409,19.988400249989354,['A1'],['B2'],['C3'],['salmon'],['yellow'],['blue'],2088.6650523999997,None,10.0,1.4975331000023289,2088.6650523999997,None,2098.165020699991,None,9.0,4.415009300006204,2090.215067600002,None,5.0,3.481056400007219,2094.231574599995,None,8.0,4.381640399995376,<function functionImportanceB at 0x0000012F00DEDC80>,<function functionImportanceA at 0x0000012F00DED620>,<function functionImportanceC at 0x0000012F018FC510>,,,8.0,2.6312588000000687,1.0,4.381640399995376,1.0,3.4145400000124937,<function functiondiffC at 0x0000012F01D6E730>,<function functiondiffB at 0x0000012F018FC950>,<function functiondiffA at 0x0000012F018FC1E0>,,,,,2068.223133899999,2105.7481401999976,None,2102.531493699993,None,2109.2978501999896,None,008,001,2022_Jun_14_1523,2leo,2021.2.3,59.377839000567086,
3,44,Plan a party at your place,Stimuli/44A1.jpg,Stimuli/44A2.jpg,Stimuli/44A3.jpg,Stimuli/44B1.jpg,Stimuli/44B2.jpg,Stimuli/44B3.jpg,Stimuli/44C1.jpg,Stimuli/44C2.jpg,Stimuli/44C3.jpg,,,,,0,27,27,44,,,,,,,,2111.3308323999954,None,2112.3311874999927,None,2118.33112979999,None,"[-0.2, 0.346]","[0.399, -0.003]","[-0.203, -0.347]","[-0.377, 0.138]","[0.306, 0.255]","[0.066, -0.395]","[-0.378, -0.136]","[0.07, 0.393]","[0.304, -0.26]",,19.104216649997397,13.321334849999403,17.65453704999527,"[-0.32685185185185184, -0.37037037037037035, -0.1425925925925926]","[0.07592592592592592, -0.10740740740740741, 0.3037037037037037]","[1, 1, 1]","[0, 0, 0]","[0, 0, 0]","[13.317827699996997, 17.650734800001374, 19.100985500001116]",0.0028324500017333776,19.103376049999497,['A1'],['B1'],['C1'],['salmon'],['blue'],['yellow'],2139.063515899994,None,9.0,12.662847599989618,2139.063515899994,None,2160.432300200002,None,4.0,2.999087200005306,2157.046790799999,None,10.0,3.365772300006938,2151.7799188999925,None,9.0,5.230649000004632,<function functionImportanceA at 0x0000012F00DED0D0>,<function functionImportanceB at 0x0000012F01D6E158>,<function functionImportanceC at 0x0000012F01D6E400>,,,1.0,5.481408399995416,-0.0,5.230649000004632,10.0,6.214524600000004,<function functiondiffC at 0x0000012F01D6E378>,<function functiondiffB at 0x0000012F018FCE18>,<function functiondiffA at 0x0000012F018FC598>,,,,,2119.478906499993,2169.596231000003,None,2163.4131715999974,None,2175.8296478999982,None,008,001,2022_Jun_14_1523,2leo,2021.2.3,59.377839000567086,
3,1,Plan how to study for an exam,Stimuli/1A1.jpg,Stimuli/1A2.jpg,Stimuli/1A3.jpg,Stimuli/1B1.jpg,Stimuli/1B2.jpg,Stimuli/1B3.jpg,Stimuli/1C1.jpg,Stimuli/1C2.jpg,Stimuli/1C3.jpg,,,,,0,28,28,1,,,,,,,,2180.8290760999953,None,2181.829216500002,None,2187.829366699996,None,"[0.306, 0.255]","[0.066, -0.395]","[-0.377, 0.138]","[0.07, 0.393]","[0.304, -0.26]","[-0.378, -0.136]","[0.399, -0.003]","[-0.203, -0.347]","[-0.2, 0.346]",,18.886360949996742,17.73716715000046,12.687224049994256,"[0.4351851851851852, -0.45185185185185184, 0.03981481481481482]","[-0.032407407407407406, -0.13148148148148148, -0.3527777777777778]","[1, 1, 1]","[0, 0, 0]","[0, 0, 0]","[12.67563360001077, 17.725653400004376, 18.875199900008738]",0.01067134999902919,18.885760150005808,['A2'],['B3'],['C1'],['salmon'],['blue'],['yellow'],2208.295070299995,None,10.0,2.2640370999870356,2208.295070299995,None,2215.195031700001,None,10.0,3.5484213000017917,2210.6285971000034,None,10.0,4.581121299997903,2218.778497799998,None,6.0,4.181684299997869,<function functionImportanceB at 0x0000012F01D6E2F0>,<function functionImportanceC at 0x0000012F01D6E1E0>,<function functionImportanceA at 0x0000012F01D6E8C8>,,,9.0,5.364192699998966,8.0,4.181684299997869,9.0,4.164257600001292,<function functiondiffA at 0x0000012F01D6E620>,<function functiondiffC at 0x0000012F01D6EBF8>,<function functiondiffB at 0x0000012F01D6EB70>,,,,,2188.933963599993,2236.977945599996,None,2228.328313799997,None,2222.961620499991,None,008,001,2022_Jun_14_1523,2leo,2021.2.3,59.377839000567086,
3,10,Plan a restaurant visit with your family on the weekend ,Stimuli/10A1.jpg,Stimuli/10A2.jpg,Stimuli/10A3.jpg,Stimuli/10B1.jpg,Stimuli/10B2.jpg,Stimuli/10B3.jpg,Stimuli/10C1.jpg,Stimuli/10C2.jpg,Stimuli/10C3.jpg,,,,,0,29,29,10,,,,,,,,2240.6607057999936,None,2241.660953300001,None,2247.6611615,None,"[-0.203, -0.347]","[0.399, -0.003]","[-0.2, 0.346]","[0.066, -0.395]","[0.306, 0.255]","[-0.377, 0.138]","[0.304, -0.26]","[0.07, 0.393]","[-0.378, -0.136]",,13.470236649969593,17.82006664997607,14.753749149967916,"[0.412962962962963, -0.41759259259259257, 0.05740740740740741]","[-0.04722222222222222, -0.15462962962962962, -0.3333333333333333]","[1, 1, 1]","[0, 0, 0]","[0, 0, 0]","[13.469300500000827, 14.752216699998826, 17.818906500004232]",0.0004391499678604305,17.819263449971913,['A2'],['B1'],['C3'],['salmon'],['blue'],['yellow'],2269.910299199997,None,8.0,3.713812899994082,2269.910299199997,None,2291.5595631999895,None,2.0,2.364959500002442,2276.410024500001,None,10.0,6.931072799998219,2280.760136099998,None,10.0,10.913217599998461,<function functionImportanceB at 0x0000012F01D6E268>,<function functionImportanceA at 0x0000012F01D6EAE8>,<function functionImportanceC at 0x0000012F01D6E048>,,,-0.0,2.2979800999892177,1.0,10.913217599998461,1.0,5.564829199996893,<function functiondiffC at 0x0000012F01D6EA60>,<function functiondiffB at 0x0000012F012B4A60>,<function functiondiffA at 0x0000012F012B4D08>,,,,,2251.6246143000026,2298.3596161000023,None,2293.9265707000013,None,2303.192931999991,None,008,001,2022_Jun_14_1523,2leo,2021.2.3,59.377839000567086,
3,34,Plan what car you want to buy,Stimuli/34A1.jpg,Stimuli/34A2.jpg,Stimuli/34A3.jpg,Stimuli/34B1.jpg,Stimuli/34B2.jpg,Stimuli/34B3.jpg,Stimuli/34C1.jpg,Stimuli/34C2.jpg,Stimuli/34C3.jpg,,,,,0,30,30,34,,,,,,,,2330.0421923999966,None,2331.0421557999944,None,2337.042027299991,None,"[0.399, -0.003]","[-0.203, -0.347]","[-0.2, 0.346]","[0.306, 0.255]","[0.066, -0.395]","[-0.377, 0.138]","[0.07, 0.393]","[0.304, -0.26]","[-0.378, -0.136]",,11.399046849968727,8.599672149968683,13.316036449963576,"[-0.37592592592592594, -0.22962962962962963, 0.06388888888888888]","[0.125, 0.33611111111111114, 0.34814814814814815]","[1, 1, 1]","[0, 0, 0]","[0, 0, 0]","[8.596492900003796, 11.39614199999778, 13.31278619999648]",0.0023277499567484483,13.31496044996311,['A3'],['B3'],['C1'],['salmon'],['yellow'],['blue'],2353.9744986000005,None,10.0,1.8144879000028595,2353.9744986000005,None,2361.9580023000017,None,7.0,2.53148729998793,2365.557936600002,None,5.0,5.6983454000001075,2356.8772781000007,None,10.0,6.081033900001785,<function functionImportanceA at 0x0000012F018FC7B8>,<function functionImportanceC at 0x0000012F018FC158>,<function functionImportanceB at 0x0000012F018FC400>,,,9.0,5.164227100001881,2.0,6.081033900001785,8.0,3.098119200003566,<function functiondiffA at 0x0000012F01D6EEA0>,<function functiondiffC at 0x0000012F01D6EC80>,<function functiondiffB at 0x0000012F01D6EE18>,,,,,2340.193316299992,2379.824307799994,None,2375.374276799994,None,2370.5244113999943,None,008,001,2022_Jun_14_1523,2leo,2021.2.3,59.377839000567086,
3,16,Plan a delicious cake for the birthday of a friend,Stimuli/16A1.jpg,Stimuli/16A2.jpg,Stimuli/16A3.jpg,Stimuli/16B1.jpg,Stimuli/16B2.jpg,Stimuli/16B3.jpg,Stimuli/16C1.jpg,Stimuli/16C2.jpg,Stimuli/16C3.jpg,,,,,0,31,31,16,,,,,,,,2382.2070921999984,None,2383.2072428999963,None,2389.2074333999917,None,"[0.306, 0.255]","[0.066, -0.395]","[-0.377, 0.138]","[0.399, -0.003]","[-0.203, -0.347]","[-0.2, 0.346]","[0.07, 0.393]","[0.304, -0.26]","[-0.378, -0.136]",,18.5227616999764,24.45606409998436,10.090145999973174,"[-0.33611111111111114, -0.39537037037037037, 0.3398148148148148]","[-0.1962962962962963, 0.11851851851851852, 0.03888888888888889]","[1, 1, 1]","[0, 0, 0]","[0, 0, 0]","[10.083387599996058, 18.516543599995202, 24.44977769999241]",0.0055641999788349494,24.455127499983064,['A3'],['B1'],['C3'],['yellow'],['salmon'],['blue'],2415.606140399992,None,10.0,2.1134640999953263,2415.606140399992,None,2445.689081299992,None,10.0,5.815299099995173,2422.2897525000008,None,9.0,23.547907200001646,2417.806637899994,None,9.0,4.247875200002454,<function functionImportanceA at 0x0000012F00DEDF28>,<function functionImportanceB at 0x0000012F00DEDEA0>,<function functionImportanceC at 0x0000012F0235A048>,,,9.0,5.247583299991675,0.0,4.247875200002454,9.0,4.581202899993514,<function functiondiffA at 0x0000012F018FCBF8>,<function functiondiffB at 0x0000012F018FCD08>,<function functiondiffC at 0x0000012F01D6E9D8>,,,,,2390.6879940999934,2456.7220480999968,None,2461.3056314999994,None,2451.4223988000012,None,008,001,2022_Jun_14_1523,2leo,2021.2.3,59.377839000567086,
3,23,Plan a city trip,Stimuli/23A1.jpg,Stimuli/23A2.jpg,Stimuli/23A3.jpg,Stimuli/23B1.jpg,Stimuli/23B2.jpg,Stimuli/23B3.jpg,Stimuli/23C1.jpg,Stimuli/23C2.jpg,Stimuli/23C3.jpg,,,,,0,32,32,23,,,,,,,,2463.638180599999,None,2464.6388448999933,None,2470.63862469999,None,"[0.399, -0.003]","[-0.203, -0.347]","[-0.2, 0.346]","[0.306, 0.255]","[0.066, -0.395]","[-0.377, 0.138]","[0.07, 0.393]","[0.304, -0.26]","[-0.378, -0.136]",,12.261130849990877,7.861319049989106,10.67810364998877,"[0.08148148148148149, 0.08518518518518518, -0.262037037037037]","[-0.4046296296296296, 0.31574074074074077, -0.3990740740740741]","[1, 1, 1]","[0, 0, 0]","[0, 0, 0]","[7.845714499999303, 10.662251899993862, 12.245775899995351]",0.014860049996059388,12.260340349981561,['A2'],['B2'],['C1'],['blue'],['yellow'],['salmon'],2484.537913699998,None,10.0,1.696893699991051,2484.537913699998,None,2490.2378288000036,None,8.0,7.731511100006173,2486.304824699997,None,10.0,3.8814303999970434,2497.9379177999945,None,9.0,2.931518400000641,<function functionImportanceB at 0x0000012F01D6E510>,<function functionImportanceC at 0x0000012F00DED2F0>,<function functionImportanceA at 0x0000012F01D6EF28>,,,2.0,3.2811378999904264,0.0,2.931518400000641,0.0,2.147813200004748,<function functiondiffC at 0x0000012F0235A268>,<function functiondiffB at 0x0000012F018FC048>,<function functiondiffA at 0x0000012F01D6E598>,,,,,2471.807289599994,2506.4543451999925,None,2500.8710207999975,None,2508.620828400002,None,008,001,2022_Jun_14_1523,2leo,2021.2.3,59.377839000567086,
3,39,Plan what kind of watch you want to buy,Stimuli/39A1.jpg,Stimuli/39A2.jpg,Stimuli/39A3.jpg,Stimuli/39B1.jpg,Stimuli/39B2.jpg,Stimuli/39B3.jpg,Stimuli/39C1.jpg,Stimuli/39C2.jpg,Stimuli/39C3.jpg,,,,,0,33,33,39,,,,,,,,2511.4213126999966,None,2512.420648200001,None,2518.420687699996,None,"[-0.378, -0.136]","[0.07, 0.393]","[0.304, -0.26]","[-0.2, 0.346]","[0.399, -0.003]","[-0.203, -0.347]","[-0.377, 0.138]","[0.306, 0.255]","[0.066, -0.395]",,8.33485904999543,9.418820849998156,10.519008949995623,"[0.275, 0.38796296296296295, -0.4111111111111111]","[-0.29074074074074074, 0.001851851851851852, 0.10185185185185185]","[1, 1, 1]","[0, 0, 0]","[0, 0, 0]","[8.324233799998183, 9.408010600003763, 10.508055199999944]",0.01004004999413155,10.517680149991065,['A3'],['B2'],['C1'],['yellow'],['salmon'],['blue'],2530.5868186000007,None,10.0,1.9296549999999115,2530.5868186000007,None,2542.6573953999905,None,8.0,3.8650628000032157,2532.5702858000004,None,10.0,6.664581100005307,2539.2700071,None,5.0,3.314988899990567,<function functionImportanceB at 0x0000012F0235AC80>,<function functionImportanceA at 0x0000012F01D6E6A8>,<function functionImportanceC at 0x0000012F0235A9D8>,,,2.0,4.514345000003232,0.0,3.314988899990567,-0.0,2.798118299993803,<function functiondiffA at 0x0000012F012B47B8>,<function functiondiffC at 0x0000012F01D6ED08>,<function functiondiffB at 0x0000012F01D6E7B8>,,,,,2519.593057799997,2554.3029561000003,None,2550.9863224,None,2546.4531553999986,None,008,001,2022_Jun_14_1523,2leo,2021.2.3,59.377839000567086,
3,30,Plan your sport work out for tomorrow,Stimuli/30A1.jpg,Stimuli/30A2.jpg,Stimuli/30A3.jpg,Stimuli/30B1.jpg,Stimuli/30B2.jpg,Stimuli/30B3.jpg,Stimuli/30C1.jpg,Stimuli/30C2.jpg,Stimuli/30C3.jpg,,,,,0,34,34,30,,,,,,,,2556.6190766999935,None,2557.6194210999965,None,2563.6193888999987,None,"[0.066, -0.395]","[-0.377, 0.138]","[0.306, 0.255]","[-0.203, -0.347]","[-0.2, 0.346]","[0.399, -0.003]","[0.304, -0.26]","[-0.378, -0.136]","[0.07, 0.393]",,11.256280549991061,10.556582449993584,8.59003574999224,"[-0.3453703703703704, -0.22685185185185186, 0.06018518518518518]","[-0.175, -0.3287037037037037, -0.3509259259259259]","[1, 1, 1]","[0, 0, 0]","[0, 0, 0]","[8.58502579999913, 10.551895500000683, 11.251851100008935]",0.004029349991469644,11.255481949992827,['A1'],['B1'],['C2'],['blue'],['yellow'],['salmon'],2576.535662800001,None,10.0,3.4805962999962503,2576.535662800001,None,2580.085669299995,None,7.0,3.0976285000069765,2583.2356292999903,None,9.0,3.048580700007733,2586.2521169999964,None,9.0,3.1488494999939576,<function functionImportanceC at 0x0000012F0235A950>,<function functionImportanceB at 0x0000012F0235A488>,<function functionImportanceA at 0x0000012F0235A158>,,,1.0,3.4977055999916047,7.0,3.1488494999939576,7.0,3.1477549000119325,<function functiondiffA at 0x0000012F018FC268>,<function functiondiffB at 0x0000012F012B4C80>,<function functiondiffC at 0x0000012F01D6E488>,,,,,2564.798538499992,2592.935255599994,None,2596.0849930999975,None,2589.403169099998,None,008,001,2022_Jun_14_1523,2leo,2021.2.3,59.377839000567086,
3,42,Plan how to draw a painting ,Stimuli/42A1.jpg,Stimuli/42A2.jpg,Stimuli/42A3.jpg,Stimuli/42B1.jpg,Stimuli/42B2.jpg,Stimuli/42B3.jpg,Stimuli/42C1.jpg,Stimuli/42C2.jpg,Stimuli/42C3.jpg,,,,,0,35,35,42,,,,,,,,2597.818029999995,None,2598.8183243999956,None,2604.8184032999998,None,"[-0.203, -0.347]","[0.399, -0.003]","[-0.2, 0.346]","[0.066, -0.395]","[0.306, 0.255]","[-0.377, 0.138]","[0.304, -0.26]","[0.07, 0.393]","[-0.378, -0.136]",,23.197388750006212,9.61369775001367,16.929970250013866,"[0.27870370370370373, -0.3851851851851852, 0.3814814814814815]","[0.23703703703703705, -0.15185185185185185, -0.03425925925925926]","[1, 1, 1]","[0, 0, 0]","[0, 0, 0]","[9.596513700002106, 16.912462399996002, 23.180462400006945]",0.01643635000800714,23.195124450008734,['A2'],['B2'],['C3'],['salmon'],['blue'],['yellow'],2629.784045799999,None,10.0,2.6628001000062795,2629.784045799999,None,2632.517655699994,None,9.0,2.664640999995754,2638.1507364999998,None,9.0,4.231745099998079,2635.351028099991,None,9.0,2.93163029999414,<function functionImportanceC at 0x0000012F0235A6A8>,<function functionImportanceA at 0x0000012F0235AF28>,<function functionImportanceB at 0x0000012F0235AAE8>,,,9.0,3.7978605999960564,1.0,2.93163029999414,3.0,5.5979910000023665,<function functiondiffA at 0x0000012F0235A730>,<function functiondiffC at 0x0000012F0235AA60>,<function functiondiffB at 0x0000012F0235AE18>,,,,,2606.1209728999966,2650.9677880999952,None,2646.183837199991,None,2642.400646199996,None,008,001,2022_Jun_14_1523,2leo,2021.2.3,59.377839000567086,
3,17,Plan a day in Barcelona with a friend who is new to the city,Stimuli/17A1.jpg,Stimuli/17A2.jpg,Stimuli/17A3.jpg,Stimuli/17B1.jpg,Stimuli/17B2.jpg,Stimuli/17B3.jpg,Stimuli/17C1.jpg,Stimuli/17C2.jpg,Stimuli/17C3.jpg,,,,,0,36,36,17,,,,,,,,2656.0832367999974,None,2657.083553699995,None,2663.0834147999994,None,"[0.304, -0.26]","[-0.378, -0.136]","[0.07, 0.393]","[0.066, -0.395]","[-0.377, 0.138]","[0.306, 0.255]","[-0.203, -0.347]","[-0.2, 0.346]","[0.399, -0.003]",,15.516925649993937,18.817258449998917,17.084316049993504,"[-0.5083333333333333, -0.46111111111111114, -0.20925925925925926, 0.35]","[-0.17592592592592593, -0.16296296296296298, 0.3148148148148148, 0.2898148148148148]","[1, 1, 1, 1]","[0, 0, 0, 0]","[0, 0, 0, 0]","[14.590233199996874, 15.50696159999643, 17.073985499999253, 18.807062100007897]",0.00932664998981636,18.816107949998695,['A2'],['B3'],['C2'],['blue'],['yellow'],['salmon'],2683.5493768000015,None,10.0,3.013404099998297,2683.5493768000015,None,2686.632950799991,None,7.0,2.564632800000254,2692.517456200003,None,6.0,11.098694800006342,2689.249191499999,None,10.0,3.281669399992097,<function functionImportanceC at 0x0000012F0235A1E0>,<function functionImportanceA at 0x0000012F0235A840>,<function functionImportanceB at 0x0000012F0235AEA0>,,,1.0,2.514385800008313,5.0,3.281669399992097,9.0,2.681499400001485,<function functiondiffB at 0x0000012F0235A0D0>,<function functiondiffA at 0x0000012F0235AD90>,<function functiondiffC at 0x0000012F0235A7B8>,,,,,2664.2568020000035,2703.5989464000013,None,2708.8153762,None,2706.2989123000007,None,008,001,2022_Jun_14_1523,2leo,2021.2.3,59.377839000567086,
3,20,Plan a tea party with your friends,Stimuli/20A1.jpg,Stimuli/20A2.jpg,Stimuli/20A3.jpg,Stimuli/20B1.jpg,Stimuli/20B2.jpg,Stimuli/20B3.jpg,Stimuli/20C1.jpg,Stimuli/20C2.jpg,Stimuli/20C3.jpg,,,,,0,37,37,20,,,,,,,,2710.550454299999,None,2711.565203099992,None,2717.565663100002,None,"[-0.2, 0.346]","[-0.203, -0.347]","[0.399, -0.003]","[-0.377, 0.138]","[0.066, -0.395]","[0.306, 0.255]","[-0.378, -0.136]","[0.304, -0.26]","[0.07, 0.393]",,7.218459899959271,11.351923399954103,13.918610899956548,"[0.4361111111111111, 0.3814814814814815, -0.2759259259259259, -0.38796296296296295, -0.38425925925925924]","[0.03611111111111111, 0.22777777777777777, -0.16944444444444445, -0.25092592592592594, -0.1712962962962963]","[1, 1, 1, 1, 1]","[0, 0, 0, 0, 0]","[0, 0, 0, 0, 0]","[7.203443799997331, 11.336719699989771, 12.769756299996516, 13.586468499997864, 13.903270599999814]",0.014392399956705049,13.917627899951185,['A3'],['B3'],['C1'],['salmon'],['blue'],['yellow'],2735.531433700002,None,9.0,2.6469343999924604,2735.531433700002,None,2744.481207299992,None,9.0,11.69823950000864,2740.6644719999895,None,9.0,6.229225200004294,2756.230918000001,None,9.0,7.031797599993297,<function functionImportanceB at 0x0000012F02741A60>,<function functionImportanceC at 0x0000012F027419D8>,<function functionImportanceA at 0x0000012F0235A510>,,,7.0,3.0979631999944104,-0.0,7.031797599993297,2.0,3.081411399994977,<function functiondiffC at 0x0000012F02741840>,<function functiondiffB at 0x0000012F01D6E840>,<function functiondiffA at 0x0000012F0235AB70>,,,,,2721.1602455999964,2766.718543499999,None,2763.230950600002,None,2769.263721299998,None,008,001,2022_Jun_14_1523,2leo,2021.2.3,59.377839000567086,
3,31,Plan your order at a restaurant    ,Stimuli/31A1.jpg,Stimuli/31A2.jpg,Stimuli/31A3.jpg,Stimuli/31B1.jpg,Stimuli/31B2.jpg,Stimuli/31B3.jpg,Stimuli/31C1.jpg,Stimuli/31C2.jpg,Stimuli/31C3.jpg,,,,,0,38,38,31,,,,,,,,2771.8967818999954,None,2772.8971346999897,None,2778.8971913999994,None,"[-0.203, -0.347]","[-0.2, 0.346]","[0.399, -0.003]","[0.304, -0.26]","[-0.378, -0.136]","[0.07, 0.393]","[0.066, -0.395]","[-0.377, 0.138]","[0.306, 0.255]",,19.833705399985774,15.98737859998073,28.100637099982123,"[0.10925925925925926, 0.4462962962962963, 0.3712962962962963]","[0.337037037037037, -0.003703703703703704, 0.2324074074074074]","[1, 1, 1]","[0, 0, 0]","[0, 0, 0]","[15.98409260000335, 19.832915799997863, 28.09937429999991]",0.00018719998479355127,28.099216599977808,['A3'],['B3'],['C3'],['salmon'],['blue'],['yellow'],2810.0961053999927,None,10.0,2.0133442000078503,2810.0961053999927,None,2820.845662199994,None,9.0,3.0984788999921875,2812.246243799993,None,8.0,8.614212000000407,2825.3125482999894,None,9.0,10.11456210000324,<function functionImportanceB at 0x0000012F027416A8>,<function functionImportanceC at 0x0000012F02741048>,<function functionImportanceA at 0x0000012F02741488>,,,10.0,2.7145596999907866,9.0,10.11456210000324,0.0,1.914531700007501,<function functiondiffC at 0x0000012F02741950>,<function functiondiffA at 0x0000012F027411E0>,<function functiondiffB at 0x0000012F02741BF8>,,,,,2781.531075299994,2840.3788022999943,None,2834.028902399994,None,2837.995563699995,None,008,001,2022_Jun_14_1523,2leo,2021.2.3,59.377839000567086,
3,28,Plan a one-week camping trip in Spain,Stimuli/28A1.jpg,Stimuli/28A2.jpg,Stimuli/28A3.jpg,Stimuli/28B1.jpg,Stimuli/28B2.jpg,Stimuli/28B3.jpg,Stimuli/28C1.jpg,Stimuli/28C2.jpg,Stimuli/28C3.jpg,,,,,0,39,39,28,,,,,,,,2841.8118052999926,None,2842.812105799996,None,2848.811949499999,None,"[0.07, 0.393]","[0.304, -0.26]","[-0.378, -0.136]","[0.399, -0.003]","[-0.203, -0.347]","[-0.2, 0.346]","[0.306, 0.255]","[0.066, -0.395]","[-0.377, 0.138]",,15.947053500000038,17.697309499999392,19.597507600003155,"[-0.019444444444444445, 0.4212962962962963, 0.024074074074074074]","[0.3592592592592593, -0.01574074074074074, -0.3814814814814815]","[1, 1, 1]","[0, 0, 0]","[0, 0, 0]","[15.938803600001847, 17.688788800005568, 19.588649100012844]",0.00783840000804048,19.596351300002425,['A1'],['B1'],['C2'],['blue'],['yellow'],['salmon'],2870.0443754000007,None,9.0,2.4635516999987885,2870.0443754000007,None,2875.0944919999893,None,6.0,3.9152877000014996,2879.010940699998,None,9.0,2.698476199992001,2872.611042299992,None,10.0,2.4981114999973215,<function functionImportanceA at 0x0000012F02741AE8>,<function functionImportanceC at 0x0000012F02741EA0>,<function functionImportanceB at 0x0000012F02741E18>,,,9.0,2.314445199997863,1.0,2.4981114999973215,0.0,2.6982282000099076,<function functiondiffC at 0x0000012F027417B8>,<function functiondiffB at 0x0000012F02741158>,<function functiondiffA at 0x0000012F027418C8>,,,,,2849.9702603999904,2887.794185299994,None,2881.7109953999898,None,2890.5107769000024,None,008,001,2022_Jun_14_1523,2leo,2021.2.3,59.377839000567086,
3,43,Plan your dream house,Stimuli/43A1.jpg,Stimuli/43A2.jpg,Stimuli/43A3.jpg,Stimuli/43B1.jpg,Stimuli/43B2.jpg,Stimuli/43B3.jpg,Stimuli/43C1.jpg,Stimuli/43C2.jpg,Stimuli/43C3.jpg,,,,,0,40,40,43,,,,,,,,2892.343676999997,None,2893.3439999999973,None,2899.3440166999935,None,"[-0.203, -0.347]","[-0.2, 0.346]","[0.399, -0.003]","[0.066, -0.395]","[-0.377, 0.138]","[0.306, 0.255]","[0.304, -0.26]","[-0.378, -0.136]","[0.07, 0.393]",,19.241579999987152,15.84205189999193,7.375636899989331,"[0.046296296296296294, -0.3574074074074074, -0.2212962962962963]","[0.40185185185185185, 0.04814814814814815, -0.2712962962962963]","[1, 1, 1]","[0, 0, 0]","[0, 0, 0]","[7.3859881999960635, 15.836086299997987, 19.235960899997735]",0.0051952999929198995,19.24096249998547,['A1'],['B2'],['C3'],['yellow'],['blue'],['salmon'],2920.2264041000017,None,10.0,2.580690200004028,2920.2264041000017,None,2922.8599838999944,None,10.0,4.331006399996113,2934.1763831999997,None,10.0,2.9155013999989023,2927.243322299997,None,5.0,6.931540999998106,<function functionImportanceC at 0x0000012F02741D08>,<function functionImportanceA at 0x0000012F0235A378>,<function functionImportanceB at 0x0000012F0235A8C8>,,,10.0,8.097953500007861,-0.0,6.931540999998106,0.0,4.08153830000083,<function functiondiffB at 0x0000012F0235A598>,<function functiondiffA at 0x0000012F02741F28>,<function functiondiffC at 0x0000012F01D6E0D0>,,,,,2900.5041163999995,2937.0763508999953,None,2949.292655700003,None,2941.175889399994,None,008,001,2022_Jun_14_1523,2leo,2021.2.3,59.377839000567086,
3,19,Plan how you want your garden to look like,Stimuli/19A1.jpg,Stimuli/19A2.jpg,Stimuli/19A3.jpg,Stimuli/19B1.jpg,Stimuli/19B2.jpg,Stimuli/19B3.jpg,Stimuli/19C1.jpg,Stimuli/19C2.jpg,Stimuli/19C3.jpg,,,,,0,41,41,19,,,,,,,,2952.5092953999992,None,2953.5091757999908,None,2959.5090057999914,None,"[-0.2, 0.346]","[0.399, -0.003]","[-0.203, -0.347]","[-0.377, 0.138]","[0.306, 0.255]","[0.066, -0.395]","[-0.378, -0.136]","[0.07, 0.393]","[0.304, -0.26]",,19.019311799958814,22.867243899949244,6.984661299953586,"[0.14629629629629629, 0.4212962962962963, 0.27685185185185185]","[0.3824074074074074, -0.021296296296296296, 0.2537037037037037]","[1, 1, 1]","[0, 0, 0]","[0, 0, 0]","[6.96962760000315, 19.003991100005805, 22.85241700000188]",0.014010199956828728,22.86633979996259,['A2'],['B2'],['C2'],['blue'],['yellow'],['salmon'],2986.4580571999977,None,10.0,2.7135982000036165,2986.4580571999977,None,2990.5912981,None,8.0,4.281176000004052,2996.6747087999975,None,8.0,2.7318931999907363,2993.558130899997,None,5.0,2.0147799999976996,<function functionImportanceC at 0x0000012F02E1F048>,<function functionImportanceA at 0x0000012F0235A620>,<function functionImportanceB at 0x0000012F02741378>,,,-0.0,5.28069419998792,1.0,2.0147799999976996,1.0,2.9145940999878803,<function functiondiffA at 0x0000012F02741620>,<function functiondiffB at 0x0000012F02741B70>,<function functiondiffC at 0x0000012F02741C80>,,,,,2963.141509199995,3003.825962899995,None,3006.907805900002,None,2998.2913438999967,None,008,001,2022_Jun_14_1523,2leo,2021.2.3,59.377839000567086,
3,38,Plan how you want to go for a run,Stimuli/38A1.jpg,Stimuli/38A2.jpg,Stimuli/38A3.jpg,Stimuli/38B1.jpg,Stimuli/38B2.jpg,Stimuli/38B3.jpg,Stimuli/38C1.jpg,Stimuli/38C2.jpg,Stimuli/38C3.jpg,,,,,0,42,42,38,,,,,,,,3010.2574426999927,None,3011.2575604000012,None,3017.2575830999995,None,"[0.066, -0.395]","[-0.377, 0.138]","[0.306, 0.255]","[0.304, -0.26]","[-0.378, -0.136]","[0.07, 0.393]","[-0.203, -0.347]","[-0.2, 0.346]","[0.399, -0.003]",,12.251380199988489,13.501188700000057,7.201789899991127,"[-0.22777777777777777, 0.262037037037037, 0.262037037037037, 0.2796296296296296]","[0.31296296296296294, 0.14722222222222223, 0.17407407407407408, -0.32685185185185184]","[1, 1, 1, 1]","[0, 0, 0, 0]","[0, 0, 0, 0]","[7.198827099986374, 11.415378499994404, 12.24881109999842, 13.498534399986966]",0.0019648000015877187,13.500282099994365,['A3'],['B1'],['C2'],['salmon'],['blue'],['yellow'],3032.506982199993,None,9.0,3.413490799997817,3032.506982199993,None,3041.025064100002,None,9.0,3.2816063000063878,3036.007026899999,None,9.0,4.8978123999986565,3044.2068360999983,None,9.0,4.498693600005936,<function functionImportanceB at 0x0000012F02E1F0D0>,<function functionImportanceC at 0x0000012F02E1F950>,<function functionImportanceA at 0x0000012F02E1FAE8>,,,1.0,3.747787200001767,5.0,4.498693600005936,9.0,11.0143226999935,<function functiondiffA at 0x0000012F02E1FC80>,<function functiondiffC at 0x0000012F02E1FB70>,<function functiondiffB at 0x0000012F02E1F510>,,,,,3018.5243128,3056.006473100002,None,3052.4733563999907,None,3048.690056499996,None,008,001,2022_Jun_14_1523,2leo,2021.2.3,59.377839000567086,
3,27,Plan what festival to visit with your friends,Stimuli/27A1.jpg,Stimuli/27A2.jpg,Stimuli/27A3.jpg,Stimuli/27B1.jpg,Stimuli/27B2.jpg,Stimuli/27B3.jpg,Stimuli/27C1.jpg,Stimuli/27C2.jpg,Stimuli/27C3.jpg,,,,,0,43,43,27,,,,,,,,3066.540117299999,None,3067.5395244999963,None,3073.539319999996,None,"[0.399, -0.003]","[-0.203, -0.347]","[-0.2, 0.346]","[0.07, 0.393]","[0.304, -0.26]","[-0.378, -0.136]","[0.306, 0.255]","[0.066, -0.395]","[-0.377, 0.138]",,15.113645649995306,11.931800149992341,14.364320849985234,"[0.2490740740740741, 0.08425925925925926, -0.24537037037037038]","[-0.2037037037037037, -0.3527777777777778, -0.33611111111111114]","[1, 1, 1]","[0, 0, 0]","[0, 0, 0]","[11.91500169999199, 14.34722480000346, 15.097104599990416]",0.01605444999586325,15.112954049996915,['A2'],['B2'],['C2'],['salmon'],['yellow'],['blue'],3090.2553687000036,None,10.0,1.5472978000034345,3090.2553687000036,None,3096.005553199997,None,9.0,6.215291800006526,3102.2384762,None,10.0,2.265635400006431,3091.855715700003,None,9.0,4.114850800004206,<function functionImportanceA at 0x0000012F02E1F840>,<function functionImportanceC at 0x0000012F02E1F378>,<function functionImportanceB at 0x0000012F02E1F598>,,,2.0,3.7641469999944093,0.0,4.114850800004206,0.0,2.0312199000036344,<function functiondiffA at 0x0000012F02E1FEA0>,<function functiondiffC at 0x0000012F027412F0>,<function functiondiffB at 0x0000012F02E1FD90>,,,,,3074.6733043999993,3111.171739700003,None,3108.2718207,None,3104.4885234999965,None,008,001,2022_Jun_14_1523,2leo,2021.2.3,59.377839000567086,
3,22,Plan a beach day with your friends,Stimuli/22A1.jpg,Stimuli/22A2.jpg,Stimuli/22A3.jpg,Stimuli/22B1.jpg,Stimuli/22B2.jpg,Stimuli/22B3.jpg,Stimuli/22C1.jpg,Stimuli/22C2.jpg,Stimuli/22C3.jpg,,,,,0,44,44,22,,,,,,,,3112.721942899996,None,3113.7214564000024,None,3119.721557099998,None,"[-0.203, -0.347]","[-0.2, 0.346]","[0.399, -0.003]","[0.066, -0.395]","[-0.377, 0.138]","[0.306, 0.255]","[0.304, -0.26]","[-0.378, -0.136]","[0.07, 0.393]",,17.094760899999528,13.378331999992952,22.428392399990116,"[-0.4212962962962963, -0.2574074074074074, -0.25462962962962965, -0.23703703703703705, -0.43148148148148147]","[0.22314814814814815, -0.44722222222222224, -0.43703703703703706, -0.41203703703703703, -0.17037037037037037]","[1, 1, 1, 1, 1]","[0, 0, 0, 0, 0]","[0, 0, 0, 0, 0]","[13.370955499995034, 14.522417400003178, 15.471113299994613, 17.08775869999954, 22.42078689999471]",0.006596499995794147,22.427226399988285,['A1'],['B2'],['C2'],['yellow'],['blue'],['salmon'],3143.787369999991,None,9.0,1.9475161000009393,3143.787369999991,None,3145.8207217000017,None,5.0,2.648053400000208,3148.45512649999,None,9.0,3.5650591000012355,3152.0536928999936,None,2.0,1.9651212000026135,<function functionImportanceC at 0x0000012F02741400>,<function functionImportanceB at 0x0000012F0235A2F0>,<function functionImportanceA at 0x0000012F02E1F400>,,,3.0,3.447526999996626,7.0,1.9651212000026135,1.0,3.5642479000089224,<function functiondiffC at 0x0000012F02E1FBF8>,<function functiondiffB at 0x0000012F02E1F1E0>,<function functiondiffA at 0x0000012F02E1F9D8>,,,,,3120.881854099993,3157.853880499999,None,3154.0037897,None,3161.4204983999953,None,008,001,2022_Jun_14_1523,2leo,2021.2.3,59.377839000567086,
