Condition,N_Scenario,written_scenario,ImageA1,ImageA2,ImageA3,ImageB1,ImageB2,ImageB3,ImageC1,ImageC2,ImageC3,trials_2.thisRepN,trials_2.thisTrialN,trials_2.thisN,trials_2.thisIndex,trial.thisRepN,trial.thisTrialN,trial.thisN,trial.thisIndex,button_2.started,button_2.stopped,button_2.numClicks,button_2.timesOn,button_2.timesOff,text.started,text.stopped,fixationcross1_started,fixationcross1_stopped,Scenario_started,Scenario_stopped,fixationcross2_started,fixationcross2_stopped,A1pos,A2pos,A3pos,B1pos,B2pos,B3pos,C1pos,C2pos,C3pos,﻿Imagesdecision_started,decisiontimeA,decisiontimeB,decisiontimeC,mouse_x,mouse_y,mouse_leftButton,mouse_midButton,mouse_rightButton,mouse_time,mouse_started,mouse_stopped,clicked_optionA,clicked_optionB,clicked_optionC,colour_category_A,colour_category_B,colour_category_C,question_confidence_started,question_confidence_stopped,slider_confidence_response,slider_confidence_rt,slider_confidence_started,slider_confidence_stopped,question_valueA_started,question_valueA_stopped,slider_valueA_response,slider_valueA_rt,question_valueC_started,question_valueC_stopped,slider_valueC_response,slider_valueC_rt,question_valueB_started,question_valueB_stopped,slider_valueB_response,slider_valueB_rt,Importance_First,Importance_Second,Importance_Third,question_diff_started,question_diff_stopped,slider_diffC_response,slider_diffC_rt,slider_diffA_response,slider_diffA_rt,slider_diffB_response,slider_diffB_rt,diff_First,diff_Second,diff_Third,button_3_started,button_3_stopped,text_2_started,text_2_stopped,Imagesdecision_started,question_diffC_started,question_diffC_stopped,question_diffA_started,question_diffA_stopped,question_diffB_started,question_diffB_stopped,participant,session,date,expName,psychopyVersion,frameRate,
3,2,Plan a party to celebrate your birthday,Stimuli/2A1t.jpg,Stimuli/2A2t.jpg,Stimuli/2A3t.jpg,Stimuli/2B1t.jpg,Stimuli/2B2t.jpg,Stimuli/2B3t.jpg,Stimuli/2C1t.jpg,Stimuli/2C2t.jpg,Stimuli/2C3t.jpg,0,0,0,0,,,,,16.944049199999426,None,1,[1.2698710999993637],[1.2698748000002524],16.944049199999426,None,52.45683219999955,None,53.46641299999828,None,59.46648339999956,None,"[0.066, -0.395]","[-0.377, 0.138]","[0.306, 0.255]","[0.304, -0.26]","[-0.378, -0.136]","[0.07, 0.393]","[-0.203, -0.347]","[-0.2, 0.346]","[0.399, -0.003]",63.44471929999963,9.583428020006977,6.78358472000582,12.750573420005821,"[0.2962962962962963, 0.2833333333333333, 0.1712962962962963, 0.12685185185185185, -0.18703703703703703]","[-0.24814814814814815, -0.26666666666666666, -0.32314814814814813, -0.34629629629629627, 0.3509259259259259]","[1, 1, 1, 1, 1]","[0, 0, 0, 0, 0]","[0, 0, 0, 0, 0]","[6.768015699999523, 7.767984399999477, 8.600801799999317, 9.568160399998305, 12.734673999999359]",0.014871520006636274,12.749205720007012,['A1'],['B1'],['C2'],['blue'],['yellow'],['salmon'],76.64918939999916,None,8.0,4.929499300000316,76.64918939999916,None,82.9491225999991,None,8.0,11.396882500001084,93.08258909999859,None,8.0,2.6818295999983093,97.33808789999966,None,9.0,5.348245999999563,<function functionImportanceAt at 0x000001B0A6101D08>,<function functionImportanceCt at 0x000001B09A163268>,<function functionImportanceBt at 0x000001B0A6101D90>,115.66503019999982,None,6.0,6.447521500000221,7.0,11.396882500001084,9.0,4.247959700000138,<function functiondiffCt at 0x000001B0A6E64378>,<function functiondiffAt at 0x000001B0A6E64F28>,<function functiondiffBt at 0x000001B0A6E64840>,,,,,,,,,,,,17,001,2022_Jul_19_1152,2leo,2021.2.3,59.98372041848456,
3,3,Plan one week of vacation,Stimuli/3A1t.jpg,Stimuli/3A2t.jpg,Stimuli/3A3t.jpg,Stimuli/3B1t.jpg,Stimuli/3B2t.jpg,Stimuli/3B3t.jpg,Stimuli/3C1t.jpg,Stimuli/3C2t.jpg,Stimuli/3C3t.jpg,0,1,1,1,,,,,,,,,,,,118.98117039999852,None,119.98115289999987,None,125.98116089999894,None,"[0.066, -0.395]","[0.306, 0.255]","[-0.377, 0.138]","[-0.203, -0.347]","[0.399, -0.003]","[-0.2, 0.346]","[0.304, -0.26]","[0.07, 0.393]","[-0.378, -0.136]",132.14239279999856,17.19572956000593,21.945954660006464,3.981557460007025,"[-0.3055555555555556, -0.29814814814814816, -0.3175925925925926, 0.262037037037037, -0.16018518518518518]","[-0.10740740740740741, -0.10648148148148148, -0.10833333333333334, 0.2638888888888889, 0.32592592592592595]","[1, 1, 1, 1, 1]","[0, 0, 0, 0, 0]","[0, 0, 0, 0, 0]","[3.973232399999688, 8.071622699999352, 8.871428799999194, 17.187991099999635, 21.937879999999495]",0.0072401600064040394,21.94477686000573,['A2'],['B3'],['C3'],['blue'],['yellow'],['salmon'],154.54697789999955,None,6.0,2.5975263999989693,154.54697789999955,None,169.1967165999995,None,8.0,5.398318900000959,174.14616879999994,None,8.0,4.8151596000006975,158.91366189999826,None,4.0,10.047980299999836,<function functionImportanceBt at 0x000001B0A6101BF8>,<function functionImportanceAt at 0x000001B0939C31E0>,<function functionImportanceCt at 0x000001B0A6101EA0>,187.81273650000003,None,8.0,3.7816348999986076,7.0,5.398318900000959,10.0,5.531426300000021,<function functiondiffAt at 0x000001B0A6E649D8>,<function functiondiffCt at 0x000001B0A6E64AE8>,<function functiondiffBt at 0x000001B0A6E64598>,,,,,,,,,,,,17,001,2022_Jul_19_1152,2leo,2021.2.3,59.98372041848456,
3,23,Plan a city trip,Stimuli/23A1.jpg,Stimuli/23A2.jpg,Stimuli/23A3.jpg,Stimuli/23B1.jpg,Stimuli/23B2.jpg,Stimuli/23B3.jpg,Stimuli/23C1.jpg,Stimuli/23C2.jpg,Stimuli/23C3.jpg,,,,,0,0,0,23,,,,,,,,195.96145429999888,None,196.91249509999943,None,202.91238539999904,None,"[-0.378, -0.136]","[0.07, 0.393]","[0.304, -0.26]","[-0.2, 0.346]","[0.399, -0.003]","[-0.203, -0.347]","[-0.377, 0.138]","[0.306, 0.255]","[0.066, -0.395]",,15.755801060000522,11.241033759999482,13.406544760000543,"[-0.1814814814814815, 0.2861111111111111, 0.11296296296296296]","[-0.33240740740740743, 0.24351851851851852, 0.33055555555555555]","[1, 1, 1]","[0, 0, 0]","[0, 0, 0]","[11.236218500000177, 13.401419600000736, 15.751327800000581]",0.003975960000389023,15.75502165999933,['A2'],['B3'],['C2'],['blue'],['salmon'],['yellow'],220.32825609999963,None,8.0,2.562751900000876,220.32825609999963,None,226.878335899999,None,7.0,5.281733700001496,223.0283442,None,10.0,3.8644140000014886,232.17815159999918,None,9.0,3.614704300000085,<function functionImportanceC at 0x000001B0A6E64488>,<function functionImportanceA at 0x000001B0A61019D8>,<function functionImportanceB at 0x000001B0A3E549D8>,,,0.0,5.281733700001496,5.0,2.6142359000004944,7.0,3.4307528999997885,<function functiondiffC at 0x000001B0A7AAA158>,<function functiondiffA at 0x000001B0A6E640D0>,<function functiondiffB at 0x000001B0A6E64D90>,192.46260559999973,None,192.46260559999973,None,204.09385399999883,235.74480799999947,None,239.22805979999976,None,241.86112149999826,None,17,001,2022_Jul_19_1152,2leo,2021.2.3,59.98372041848456,
3,18,Plan your Saturday night ,Stimuli/18A1.jpg,Stimuli/18A2.jpg,Stimuli/18A3.jpg,Stimuli/18B1.jpg,Stimuli/18B2.jpg,Stimuli/18B3.jpg,Stimuli/18C1.jpg,Stimuli/18C2.jpg,Stimuli/18C3.jpg,,,,,0,1,1,18,,,,,,,,244.81101709999894,None,245.81098839999868,None,251.81102359999932,None,"[0.066, -0.395]","[0.306, 0.255]","[-0.377, 0.138]","[-0.203, -0.347]","[0.399, -0.003]","[-0.2, 0.346]","[0.304, -0.26]","[0.07, 0.393]","[-0.378, -0.136]",,6.877033959999608,16.17705105999994,10.427434259998336,"[0.11666666666666667, 0.2851851851851852, 0.3574074074074074]","[-0.4111111111111111, -0.2962962962962963, -0.041666666666666664]","[1, 1, 1]","[0, 0, 0]","[0, 0, 0]","[6.870876800001497, 10.420801600001141, 16.170530500001405]",0.005722959998820443,16.176222959998995,['A1'],['B2'],['C1'],['salmon'],['blue'],['yellow'],269.5603124999998,None,7.0,2.363847099999475,269.5603124999998,None,279.0267802999988,None,9.0,4.048555600000327,275.3115087999995,None,9.0,3.715138100000331,271.9436969999988,None,10.0,3.2977281999992556,<function functionImportanceB at 0x000001B0A7AAA840>,<function functionImportanceC at 0x000001B0A7AAA1E0>,<function functionImportanceA at 0x000001B0A7AAAA60>,,,4.0,4.048555600000327,2.0,4.54779409999901,5.0,3.6981443999993644,<function functiondiffA at 0x000001B0A6E64E18>,<function functiondiffB at 0x000001B0A6E64730>,<function functiondiffC at 0x000001B0A6E646A8>,,,,,252.90708519999862,291.3598387999991,None,283.0768002999994,None,287.6266444999983,None,17,001,2022_Jul_19_1152,2leo,2021.2.3,59.98372041848456,
3,19,Plan how you want your garden to look like,Stimuli/19A1.jpg,Stimuli/19A2.jpg,Stimuli/19A3.jpg,Stimuli/19B1.jpg,Stimuli/19B2.jpg,Stimuli/19B3.jpg,Stimuli/19C1.jpg,Stimuli/19C2.jpg,Stimuli/19C3.jpg,,,,,0,2,2,19,,,,,,,,294.4762288999991,None,295.4763817999992,None,301.47634189999917,None,"[-0.377, 0.138]","[0.066, -0.395]","[0.306, 0.255]","[-0.2, 0.346]","[-0.203, -0.347]","[0.399, -0.003]","[-0.378, -0.136]","[0.304, -0.26]","[0.07, 0.393]",,25.632501360003516,18.549685460004184,6.65019826000389,"[0.3425925925925926, 0.38055555555555554, -0.38333333333333336]","[-0.2064814814814815, -0.023148148148148147, 0.2]","[1, 1, 1]","[0, 0, 0]","[0, 0, 0]","[6.636202099998627, 18.535803299999316, 25.61911169999985]",0.012967560003744438,25.632017960004305,['A1'],['B3'],['C2'],['yellow'],['blue'],['salmon'],331.1920124999997,None,5.0,2.530202300000383,331.1920124999997,None,333.8087069999983,None,3.0,4.031116899999688,345.141710599999,None,7.0,4.098657000000458,338.9252772,None,2.0,5.898475699999835,<function functionImportanceA at 0x000001B0A6E64A60>,<function functionImportanceB at 0x000001B0A7AAAF28>,<function functionImportanceC at 0x000001B0A7AAA730>,,,3.0,4.031116899999688,8.0,3.164494000000559,8.0,3.7812702000010177,<function functiondiffB at 0x000001B0A6E64620>,<function functiondiffA at 0x000001B0A6E64EA0>,<function functiondiffC at 0x000001B0A7AAA7B8>,,,,,305.10781209999914,355.2246968999989,None,351.65821439999854,None,348.1081645999984,None,17,001,2022_Jul_19_1152,2leo,2021.2.3,59.98372041848456,
3,5,Plan a birthday party for your younger self when you turn eight,Stimuli/5A1.jpg,Stimuli/5A2.jpg,Stimuli/5A3.jpg,Stimuli/5B1.jpg,Stimuli/5B2.jpg,Stimuli/5B3.jpg,Stimuli/5C1.jpg,Stimuli/5C2.jpg,Stimuli/5C3.jpg,,,,,0,3,3,5,,,,,,,,357.57464359999904,None,358.57458659999975,None,364.5745158999998,None,"[0.066, -0.395]","[0.306, 0.255]","[-0.377, 0.138]","[-0.203, -0.347]","[0.399, -0.003]","[-0.2, 0.346]","[0.304, -0.26]","[0.07, 0.393]","[-0.378, -0.136]",,21.26046626000607,13.594121260006432,8.812387460005993,"[-0.3296296296296296, -0.20092592592592592, 0.06574074074074074]","[-0.07407407407407407, -0.29074074074074074, -0.3388888888888889]","[1, 1, 1]","[0, 0, 0]","[0, 0, 0]","[8.79772419999972, 13.579919400001017, 21.24657330000082]",0.01347016000545409,21.259734960005517,['A1'],['B1'],['C3'],['blue'],['yellow'],['salmon'],392.1902261999985,None,6.0,3.663296900000205,392.1902261999985,None,409.4565481999998,None,2.0,5.931426099999953,396.6236597999996,None,9.0,10.93106970000008,414.37293879999925,None,8.0,5.29818669999986,<function functionImportanceC at 0x000001B0A7AAA8C8>,<function functionImportanceA at 0x000001B0A7AAAEA0>,<function functionImportanceB at 0x000001B0A7AAAAE8>,,,3.0,5.931426099999953,9.0,7.264576499999748,5.0,3.897791999999754,<function functiondiffC at 0x000001B0A7AAA048>,<function functiondiffB at 0x000001B0A6E64510>,<function functiondiffA at 0x000001B09B6E1E18>,,,,,370.4809299999997,418.25635109999894,None,427.1060789999992,None,422.7892207999994,None,17,001,2022_Jul_19_1152,2leo,2021.2.3,59.98372041848456,
3,2,Plan which ingredients you want to use for cooking dinner today,Stimuli/2A1.jpg,Stimuli/2A2.jpg,Stimuli/2A3.jpg,Stimuli/2B1.jpg,Stimuli/2B2.jpg,Stimuli/2B3.jpg,Stimuli/2C1.jpg,Stimuli/2C2.jpg,Stimuli/2C3.jpg,,,,,0,4,4,2,,,,,,,,433.12233559999913,None,434.12252499999886,None,440.12237879999884,None,"[-0.203, -0.347]","[0.399, -0.003]","[-0.2, 0.346]","[0.304, -0.26]","[0.07, 0.393]","[-0.378, -0.136]","[0.066, -0.395]","[0.306, 0.255]","[-0.377, 0.138]",,20.508641760005048,7.526163260004978,12.442592160005006,"[0.3509259259259259, 0.04722222222222222, -0.19537037037037036]","[-0.20462962962962963, -0.3416666666666667, -0.30648148148148147]","[1, 1, 1]","[0, 0, 0]","[0, 0, 0]","[7.519610600000306, 12.43580160000056, 20.502367799999774]",0.0058646600064093946,20.50807686000553,['A1'],['B1'],['C1'],['salmon'],['blue'],['yellow'],467.33786469999905,None,7.0,2.0804587000002357,467.33786469999905,None,470.7216809999991,None,9.0,6.814349800000855,476.9380098999991,None,10.0,4.914979899998798,484.6210623999996,None,10.0,6.381908400000611,<function functionImportanceA at 0x000001B0A7AAA0D0>,<function functionImportanceC at 0x000001B0A7C39158>,<function functionImportanceB at 0x000001B0A7C39048>,,,-0.0,6.814349800000855,5.0,4.230791800000588,0.0,3.231005699999514,<function functiondiffA at 0x000001B0A7AAAE18>,<function functiondiffC at 0x000001B0A4290EA0>,<function functiondiffB at 0x000001B0A7AAA950>,,,,,446.36936949999836,492.05418929999905,None,487.9543885999992,None,495.9374341999992,None,17,001,2022_Jul_19_1152,2leo,2021.2.3,59.98372041848456,
3,4,Plan a game night at your place,Stimuli/4A1.jpg,Stimuli/4A2.jpg,Stimuli/4A3.jpg,Stimuli/4B1.jpg,Stimuli/4B2.jpg,Stimuli/4B3.jpg,Stimuli/4C1.jpg,Stimuli/4C2.jpg,Stimuli/4C3.jpg,,,,,0,5,5,4,,,,,,,,497.8372408999985,None,498.8374454999994,None,504.83734339999864,None,"[0.306, 0.255]","[0.066, -0.395]","[-0.377, 0.138]","[0.399, -0.003]","[-0.203, -0.347]","[-0.2, 0.346]","[0.07, 0.393]","[0.304, -0.26]","[-0.378, -0.136]",,19.751103820004573,7.818412820004596,14.618431420005436,"[-0.15648148148148147, -0.31296296296296294, -0.3490740740740741]","[0.3194444444444444, -0.0787037037037037, 0.08148148148148149]","[1, 1, 1]","[0, 0, 0]","[0, 0, 0]","[7.812752199999522, 14.612534399999277, 19.745726699999068]",0.0047410200040758355,19.750448720003988,['A3'],['B3'],['C3'],['yellow'],['blue'],['salmon'],528.5363869999983,None,6.0,1.7969902999993792,528.5363869999983,None,536.452941399999,None,6.0,5.581500199999937,531.7364104999997,None,8.0,4.998126099999354,541.069340099999,None,10.0,2.448450600000797,<function functionImportanceC at 0x000001B0A7C392F0>,<function functionImportanceA at 0x000001B0A7C397B8>,<function functionImportanceB at 0x000001B0A7C39730>,,,4.0,5.581500199999937,5.0,3.3809545999993134,7.0,3.2814294999989215,<function functiondiffB at 0x000001B0A7AAAB70>,<function functiondiffC at 0x000001B0A7C39620>,<function functiondiffA at 0x000001B0A7AAA598>,,,,,508.3233948999987,547.119095,None,550.9359607999995,None,543.436048399999,None,17,001,2022_Jul_19_1152,2leo,2021.2.3,59.98372041848456,
3,22,Plan a beach day with your friends,Stimuli/22A1.jpg,Stimuli/22A2.jpg,Stimuli/22A3.jpg,Stimuli/22B1.jpg,Stimuli/22B2.jpg,Stimuli/22B3.jpg,Stimuli/22C1.jpg,Stimuli/22C2.jpg,Stimuli/22C3.jpg,,,,,0,6,6,22,,,,,,,,553.5189304999985,None,554.5192321999984,None,560.5191139999988,None,"[0.304, -0.26]","[-0.378, -0.136]","[0.07, 0.393]","[-0.203, -0.347]","[-0.2, 0.346]","[0.399, -0.003]","[0.066, -0.395]","[-0.377, 0.138]","[0.306, 0.255]",,16.943538339999577,13.677093840000452,9.360628439999346,"[-0.31296296296296294, -0.20462962962962963, 0.05648148148148148]","[0.09722222222222222, 0.3490740740740741, 0.37407407407407406]","[1, 1, 1]","[0, 0, 0]","[0, 0, 0]","[9.353874399999768, 13.67054409999946, 16.93718909999916]",0.005751540000346722,16.942687439999645,['A3'],['B2'],['C2'],['yellow'],['blue'],['salmon'],579.0848810999996,None,8.0,2.546711299999515,579.0848810999996,None,589.7013564999997,None,9.0,2.8819235999999364,585.7348590999991,None,9.0,3.9651044999991427,581.6850044999992,None,10.0,3.9644332000007125,<function functionImportanceB at 0x000001B0A7C39510>,<function functionImportanceC at 0x000001B0A7C39488>,<function functionImportanceA at 0x000001B0A7C39378>,,,7.0,2.8819235999999364,7.0,2.6481113999998342,-0.0,2.614815799999633,<function functiondiffA at 0x000001B0A7C391E0>,<function functiondiffB at 0x000001B0A7C396A8>,<function functiondiffC at 0x000001B0A7AAA6A8>,,,,,561.6635109999988,597.8345340999986,None,592.5346937999984,None,595.2013642999991,None,17,001,2022_Jul_19_1152,2leo,2021.2.3,59.98372041848456,
3,27,Plan what festival to visit with your friends,Stimuli/27A1.jpg,Stimuli/27A2.jpg,Stimuli/27A3.jpg,Stimuli/27B1.jpg,Stimuli/27B2.jpg,Stimuli/27B3.jpg,Stimuli/27C1.jpg,Stimuli/27C2.jpg,Stimuli/27C3.jpg,,,,,0,7,7,27,,,,,,,,600.1010432999992,None,601.1012027999986,None,607.1011243999983,None,"[0.07, 0.393]","[0.304, -0.26]","[-0.378, -0.136]","[0.306, 0.255]","[0.066, -0.395]","[-0.377, 0.138]","[0.399, -0.003]","[-0.203, -0.347]","[-0.2, 0.346]",,22.939317220001612,16.706781720002255,9.1905108200026,"[0.41944444444444445, 0.3425925925925926, 0.01574074074074074]","[-0.03611111111111111, 0.18611111111111112, 0.3453703703703704]","[1, 1, 1]","[0, 0, 0]","[0, 0, 0]","[9.177376900001036, 16.693932600001062, 22.926697400000194]",0.01216772000225319,22.938666920001197,['A1'],['B1'],['C1'],['salmon'],['blue'],['yellow'],631.6168334999984,None,6.0,2.047118999998929,631.6168334999984,None,633.716816099999,None,10.0,2.331238200000371,636.0668172999995,None,8.0,2.765029100000902,638.8666492999982,None,8.0,3.265266899999915,<function functionImportanceA at 0x000001B0A7C39840>,<function functionImportanceC at 0x000001B0A7C39BF8>,<function functionImportanceB at 0x000001B0A7C39F28>,,,7.0,2.331238200000371,5.0,5.481171500001437,6.0,2.998141599999144,<function functiondiffA at 0x000001B0A7C399D8>,<function functiondiffB at 0x000001B0A7C39AE8>,<function functiondiffC at 0x000001B0A7C39B70>,,,,,608.2054142999987,650.6331369,None,642.116375399999,None,647.6162814999989,None,17,001,2022_Jul_19_1152,2leo,2021.2.3,59.98372041848456,
3,30,Plan your sport work out for tomorrow,Stimuli/30A1.jpg,Stimuli/30A2.jpg,Stimuli/30A3.jpg,Stimuli/30B1.jpg,Stimuli/30B2.jpg,Stimuli/30B3.jpg,Stimuli/30C1.jpg,Stimuli/30C2.jpg,Stimuli/30C3.jpg,,,,,0,8,8,30,,,,,,,,656.316016499999,None,657.3161557999993,None,663.3162144999988,None,"[0.07, 0.393]","[-0.378, -0.136]","[0.304, -0.26]","[0.306, 0.255]","[-0.377, 0.138]","[0.066, -0.395]","[0.399, -0.003]","[-0.2, 0.346]","[-0.203, -0.347]",,6.730971700000737,9.797801700000491,15.49766979999913,"[-0.3888888888888889, 0.28055555555555556, 0.44537037037037036]","[-0.10092592592592593, 0.20925925925925926, 0.002777777777777778]","[1, 1, 1]","[0, 0, 0]","[0, 0, 0]","[6.722553599998719, 9.789189699999042, 15.488802300000316]",0.007903699999587843,15.496588599999086,['A2'],['B1'],['C1'],['salmon'],['blue'],['yellow'],680.4488672999996,None,7.0,1.9137539000003017,680.4488672999996,None,685.2818962999991,None,10.0,3.1818423999993684,682.4322466999984,None,7.0,2.831192399999054,688.5319717999992,None,8.0,3.4314947000002576,<function functionImportanceC at 0x000001B0A7C39EA0>,<function functionImportanceA at 0x000001B0A7AAABF8>,<function functionImportanceB at 0x000001B0A6E64D08>,,,9.0,3.1818423999993684,0.0,2.5142273000001296,6.0,2.9809194999998,<function functiondiffB at 0x000001B0A7C39C80>,<function functiondiffC at 0x000001B0A7C39A60>,<function functiondiffA at 0x000001B0A7C39E18>,,,,,664.475651499999,694.8985294999984,None,697.9151018999983,None,691.915117999999,None,17,001,2022_Jul_19_1152,2leo,2021.2.3,59.98372041848456,
3,1,Plan how to study for an exam,Stimuli/1A1.jpg,Stimuli/1A2.jpg,Stimuli/1A3.jpg,Stimuli/1B1.jpg,Stimuli/1B2.jpg,Stimuli/1B3.jpg,Stimuli/1C1.jpg,Stimuli/1C2.jpg,Stimuli/1C3.jpg,,,,,0,9,9,1,,,,,,,,699.9482079999998,None,700.9482563999991,None,706.9481927999987,None,"[0.306, 0.255]","[0.066, -0.395]","[-0.377, 0.138]","[0.399, -0.003]","[-0.203, -0.347]","[-0.2, 0.346]","[0.07, 0.393]","[0.304, -0.26]","[-0.378, -0.136]",,17.325394600000436,23.49196160000065,7.959006400000362,"[0.07685185185185185, 0.06666666666666667, 0.3962962962962963]","[0.3453703703703704, -0.35555555555555557, 0.023148148148148147]","[1, 1, 1]","[0, 0, 0]","[0, 0, 0]","[7.953262600000016, 17.320113899999342, 23.48650909999924]",0.004778700000315439,23.49107020000156,['A2'],['B1'],['C1'],['salmon'],['blue'],['yellow'],731.9973226999991,None,8.0,2.4966932000006636,731.9973226999991,None,743.0472515999991,None,9.0,4.347541400000409,734.5306361999992,None,10.0,3.081223199998931,737.6639950999997,None,10.0,5.382333100000324,<function functionImportanceC at 0x000001B0A7AAAD08>,<function functionImportanceB at 0x000001B0A7AAA9D8>,<function functionImportanceA at 0x000001B0A7AAAD90>,,,0.0,4.347541400000409,3.0,2.547525099998893,2.0,2.7480166999994253,<function functiondiffC at 0x000001B0A7C39950>,<function functiondiffA at 0x000001B0A7C390D0>,<function functiondiffB at 0x000001B0A7C39D90>,,,,,708.0253604999998,747.380361399999,None,750.2971229999985,None,752.8469487999992,None,17,001,2022_Jul_19_1152,2leo,2021.2.3,59.98372041848456,
3,39,Plan what kind of watch you want to buy,Stimuli/39A1.jpg,Stimuli/39A2.jpg,Stimuli/39A3.jpg,Stimuli/39B1.jpg,Stimuli/39B2.jpg,Stimuli/39B3.jpg,Stimuli/39C1.jpg,Stimuli/39C2.jpg,Stimuli/39C3.jpg,,,,,0,10,10,39,,,,,,,,755.1300648999986,None,756.1300318999984,None,762.1300944999984,None,"[0.066, -0.395]","[0.306, 0.255]","[-0.377, 0.138]","[0.304, -0.26]","[0.07, 0.393]","[-0.378, -0.136]","[-0.203, -0.347]","[0.399, -0.003]","[-0.2, 0.346]",,19.40433223999935,5.338133940000262,11.971682540000984,"[0.3037037037037037, 0.3861111111111111, -0.37592592592592594]","[-0.20925925925925926, -0.049074074074074076, 0.075]","[1, 1, 1]","[0, 0, 0]","[0, 0, 0]","[5.334298600000693, 11.967545400000745, 19.400614199999836]",0.0031006400004116585,19.403619540000363,['A3'],['B1'],['C2'],['salmon'],['yellow'],['blue'],783.1624997999988,None,6.0,2.3469437999992806,783.1624997999988,None,785.5792713999999,None,3.0,5.547784800000954,791.1791446999996,None,0.0,3.0817886000004364,794.2290515999994,None,10.0,3.315163199999006,<function functionImportanceA at 0x000001B0A7651048>,<function functionImportanceC at 0x000001B0A7651510>,<function functionImportanceB at 0x000001B0A76512F0>,,,3.0,5.547784800000954,7.0,3.9808425000010175,-0.0,3.098131300001114,<function functiondiffA at 0x000001B0A7C39268>,<function functiondiffC at 0x000001B0A7651400>,<function functiondiffB at 0x000001B0A7C39400>,,,,,763.2761082999987,801.5455816999984,None,797.5456910999983,None,804.0119972999983,None,17,001,2022_Jul_19_1152,2leo,2021.2.3,59.98372041848456,
3,41,Plan how you want to have dinner tonight ,Stimuli/41A1.jpg,Stimuli/41A2.jpg,Stimuli/41A3.jpg,Stimuli/41B1.jpg,Stimuli/41B2.jpg,Stimuli/41B3.jpg,Stimuli/41C1.jpg,Stimuli/41C2.jpg,Stimuli/41C3.jpg,,,,,0,11,11,41,,,,,,,,806.6285351999995,None,807.6286864999984,None,813.6286302999997,None,"[-0.378, -0.136]","[0.07, 0.393]","[0.304, -0.26]","[-0.377, 0.138]","[0.306, 0.255]","[0.066, -0.395]","[-0.2, 0.346]","[0.399, -0.003]","[-0.203, -0.347]",,18.940755400000853,17.324372900000526,11.958359899999778,"[-0.1675925925925926, -0.3037037037037037, 0.05092592592592592]","[-0.3296296296296296, 0.0824074074074074, 0.33611111111111114]","[1, 1, 1]","[0, 0, 0]","[0, 0, 0]","[11.94343089999893, 17.30985409999994, 18.926395499998762]",0.013813400000799447,18.940105899999253,['A2'],['B1'],['C3'],['salmon'],['blue'],['yellow'],834.361154799999,None,7.0,2.2637916000003315,834.361154799999,None,846.3940681999993,None,10.0,3.7818829999996524,841.2444596999994,None,9.0,5.281689400000687,836.6946175999983,None,8.0,4.364566000000195,<function functionImportanceB at 0x000001B0A7651AE8>,<function functionImportanceC at 0x000001B0A7651488>,<function functionImportanceA at 0x000001B0A76519D8>,,,-0.0,3.7818829999996524,2.0,3.3978343999988283,5.0,3.1311581000009028,<function functiondiffC at 0x000001B0A7651840>,<function functiondiffA at 0x000001B0A76517B8>,<function functiondiffB at 0x000001B0A76516A8>,,,,,814.9505520999992,850.1793085999998,None,852.7606750999985,None,856.1771191999997,None,17,001,2022_Jul_19_1152,2leo,2021.2.3,59.98372041848456,
3,28,Plan a one-week camping trip in Spain,Stimuli/28A1.jpg,Stimuli/28A2.jpg,Stimuli/28A3.jpg,Stimuli/28B1.jpg,Stimuli/28B2.jpg,Stimuli/28B3.jpg,Stimuli/28C1.jpg,Stimuli/28C2.jpg,Stimuli/28C3.jpg,,,,,0,12,12,28,,,,,,,,858.8270452999986,None,859.8273073,None,865.8270372999996,None,"[-0.2, 0.346]","[-0.203, -0.347]","[0.399, -0.003]","[-0.377, 0.138]","[0.066, -0.395]","[0.306, 0.255]","[-0.378, -0.136]","[0.304, -0.26]","[0.07, 0.393]",,22.098659620001854,8.015932020001856,15.215866220001772,"[0.275, -0.32685185185185184, -0.20092592592592592]","[0.21388888888888888, -0.1425925925925926, -0.2962962962962963]","[1, 1, 1]","[0, 0, 0]","[0, 0, 0]","[8.006801400000768, 15.206506600001376, 22.089900700000726]",0.008240520000981633,22.09781922000184,['A2'],['B3'],['C1'],['salmon'],['yellow'],['blue'],889.5096414,None,5.0,2.796904299999369,889.5096414,None,898.4928529999997,None,9.0,3.715228200000638,892.3764101999986,None,8.0,3.5141157999987627,895.9095927999988,None,8.0,2.56511429999955,<function functionImportanceC at 0x000001B0A7651950>,<function functionImportanceB at 0x000001B0A7651C80>,<function functionImportanceA at 0x000001B0A7651BF8>,,,9.0,3.715228200000638,9.0,2.0813603999995394,7.0,3.5817932999998447,<function functiondiffC at 0x000001B0A76518C8>,<function functiondiffA at 0x000001B0A7C398C8>,<function functiondiffB at 0x000001B0A7C39598>,,,,,866.9349715999997,902.1769304999998,None,906.9092410999983,None,909.0091607999984,None,17,001,2022_Jul_19_1152,2leo,2021.2.3,59.98372041848456,
3,3,Plan a movie night with a friend,Stimuli/3A1.jpg,Stimuli/3A2.jpg,Stimuli/3A3.jpg,Stimuli/3B1.jpg,Stimuli/3B2.jpg,Stimuli/3B3.jpg,Stimuli/3C1.jpg,Stimuli/3C2.jpg,Stimuli/3C3.jpg,,,,,0,13,13,3,,,,,,,,912.1086689999993,None,913.1090527999986,None,919.1088856999995,None,"[0.306, 0.255]","[0.066, -0.395]","[-0.377, 0.138]","[0.07, 0.393]","[0.304, -0.26]","[-0.378, -0.136]","[0.399, -0.003]","[-0.203, -0.347]","[-0.2, 0.346]",,14.451065160004873,9.001577860004545,20.801348960003452,"[0.26851851851851855, 0.27314814814814814, -0.17037037037037037]","[-0.24166666666666667, 0.2388888888888889, 0.30185185185185187]","[1, 1, 1]","[0, 0, 0]","[0, 0, 0]","[8.987408099999811, 14.437254399999802, 20.78685150000092]",0.013399060004303465,20.80005216000427,['A1'],['B2'],['C3'],['yellow'],['blue'],['salmon'],943.9080040999997,None,6.0,2.2135856000004424,943.9080040999997,None,946.1913503999986,None,10.0,4.2977998000005755,955.8583433999993,None,7.0,5.048187700000199,951.2080095999991,None,10.0,3.6152664000001096,<function functionImportanceA at 0x000001B0A7651A60>,<function functionImportanceB at 0x000001B0A7651598>,<function functionImportanceC at 0x000001B0A9518488>,,,7.0,4.2977998000005755,3.0,3.54800989999967,8.0,3.7309757999992144,<function functiondiffC at 0x000001B0A7C39D08>,<function functiondiffB at 0x000001B0A7651378>,<function functiondiffA at 0x000001B0A7AAA268>,,,,,922.6542031999998,959.5408948999993,None,966.9243413999993,None,963.5742785999992,None,17,001,2022_Jul_19_1152,2leo,2021.2.3,59.98372041848456,
3,8,Plan the interior of your living-room ,Stimuli/8A1.jpg,Stimuli/8A2.jpg,Stimuli/8A3.jpg,Stimuli/8B1.jpg,Stimuli/8B2.jpg,Stimuli/8B3.jpg,Stimuli/8C1.jpg,Stimuli/8C2.jpg,Stimuli/8C3.jpg,,,,,0,14,14,8,,,,,,,,969.9905874999986,None,970.9908622999992,None,976.9907721999989,None,"[-0.2, 0.346]","[-0.203, -0.347]","[0.399, -0.003]","[-0.377, 0.138]","[0.066, -0.395]","[0.306, 0.255]","[-0.378, -0.136]","[0.304, -0.26]","[0.07, 0.393]",,7.561778240007698,11.828689540008781,15.912298440007362,"[-0.18518518518518517, -0.3148148148148148, 0.30833333333333335]","[0.30833333333333335, 0.1425925925925926, -0.21574074074074073]","[1, 1, 1]","[0, 0, 0]","[0, 0, 0]","[7.552714999999807, 11.819388599999002, 15.902621899998849]",0.008623740008260938,15.911037340008988,['A1'],['B1'],['C2'],['salmon'],['yellow'],['blue'],998.2232052999989,None,8.0,2.0970500000003085,998.2232052999989,None,1007.2231162999997,None,9.0,2.5484391000009055,1011.8395013999998,None,8.0,5.565028999999413,1002.1733386999986,None,6.0,6.831092800000988,<function functionImportanceB at 0x000001B0A7651268>,<function functionImportanceA at 0x000001B0A7651620>,<function functionImportanceC at 0x000001B0A9518048>,,,6.0,2.5484391000009055,1.0,2.431105800000296,7.0,5.380953799998679,<function functiondiffC at 0x000001B0A7651F28>,<function functiondiffA at 0x000001B0A3402F28>,<function functiondiffB at 0x000001B0A7AAAC80>,,,,,981.8538931999992,1015.9405466999997,None,1020.2560839999987,None,1023.2559727999997,None,17,001,2022_Jul_19_1152,2leo,2021.2.3,59.98372041848456,
3,10,Plan a restaurant visit with your family on the weekend ,Stimuli/10A1.jpg,Stimuli/10A2.jpg,Stimuli/10A3.jpg,Stimuli/10B1.jpg,Stimuli/10B2.jpg,Stimuli/10B3.jpg,Stimuli/10C1.jpg,Stimuli/10C2.jpg,Stimuli/10C3.jpg,,,,,0,15,15,10,,,,,,,,1034.3723744,None,1035.3724285999997,None,1041.3722136999986,None,"[-0.377, 0.138]","[0.066, -0.395]","[0.306, 0.255]","[-0.2, 0.346]","[-0.203, -0.347]","[0.399, -0.003]","[-0.378, -0.136]","[0.304, -0.26]","[0.07, 0.393]",,8.526790100004291,13.293834300004164,10.743841400004385,"[0.29907407407407405, 0.09351851851851851]","[0.21666666666666667, 0.325]","[1, 1]","[0, 0]","[0, 0]","[8.514313499999844, 10.730889000000388]",0.0118527000049653,13.292413100003614,['A3'],['B2'],['C3'],['salmon'],['yellow'],['blue'],1059.1546714999986,None,9.0,1.6796785999995336,1059.1546714999986,None,1061.0217104999992,None,9.0,4.13111729999946,1065.1068560999993,None,9.0,2.848535200000697,1070.7211834999998,None,9.0,5.298378600000433,<function functionImportanceA at 0x000001B0A95189D8>,<function functionImportanceC at 0x000001B0A9518E18>,<function functionImportanceB at 0x000001B0A9518EA0>,,,2.0,4.13111729999946,1.0,2.2148285999992368,-0.0,3.7644221000009566,<function functiondiffB at 0x000001B0A7651E18>,<function functiondiffC at 0x000001B0A7651D90>,<function functiondiffA at 0x000001B0A7651730>,,,,,1045.4058971999984,1076.9878297999985,None,1079.621138299999,None,1073.9877454999987,None,17,001,2022_Jul_19_1152,2leo,2021.2.3,59.98372041848456,
3,17,Plan a day in Barcelona with a friend who is new to the city,Stimuli/17A1.jpg,Stimuli/17A2.jpg,Stimuli/17A3.jpg,Stimuli/17B1.jpg,Stimuli/17B2.jpg,Stimuli/17B3.jpg,Stimuli/17C1.jpg,Stimuli/17C2.jpg,Stimuli/17C3.jpg,,,,,0,16,16,17,,,,,,,,1081.337274899999,None,1082.3375657999986,None,1088.337663299999,None,"[-0.377, 0.138]","[0.306, 0.255]","[0.066, -0.395]","[-0.378, -0.136]","[0.07, 0.393]","[0.304, -0.26]","[-0.2, 0.346]","[0.399, -0.003]","[-0.203, -0.347]",,11.249420160000227,3.017696960001558,13.833204360000309,"[0.04814814814814815, 0.04351851851851852, 0.43425925925925923]","[0.3435185185185185, -0.33055555555555555, 0.006481481481481481]","[1, 1, 1]","[0, 0, 0]","[0, 0, 0]","[3.0078479000003426, 11.239701799999239, 13.823130400000082]",0.009071260001292103,13.832015360001606,['A3'],['B2'],['C2'],['salmon'],['blue'],['yellow'],1103.8202613999983,None,9.0,1.9301300999995874,1103.8202613999983,None,1111.9036191999985,None,8.0,3.8319231000004947,1105.8203455999992,None,9.0,4.064460499999768,1109.9699644999982,None,9.0,1.9485512000010203,<function functionImportanceC at 0x000001B0A9518268>,<function functionImportanceB at 0x000001B0A9518C80>,<function functionImportanceA at 0x000001B0A9518730>,,,7.0,3.8319231000004947,6.0,3.3147917999995116,9.0,4.64783449999959,<function functiondiffA at 0x000001B0A9518378>,<function functiondiffC at 0x000001B0A7651EA0>,<function functiondiffB at 0x000001B0A95182F0>,,,,,1089.5108403999984,1119.0033126999988,None,1115.6867696999998,None,1121.6032221999994,None,17,001,2022_Jul_19_1152,2leo,2021.2.3,59.98372041848456,
3,11,Plan a hike in nature on a free day,Stimuli/11A1.jpg,Stimuli/11A2.jpg,Stimuli/11A3.jpg,Stimuli/11B1.jpg,Stimuli/11B2.jpg,Stimuli/11B3.jpg,Stimuli/11C1.jpg,Stimuli/11C2.jpg,Stimuli/11C3.jpg,,,,,0,17,17,11,,,,,,,,1125.7693495999993,None,1126.7696884999987,None,1132.7696982999987,None,"[-0.2, 0.346]","[0.399, -0.003]","[-0.203, -0.347]","[-0.378, -0.136]","[0.07, 0.393]","[0.304, -0.26]","[-0.377, 0.138]","[0.306, 0.255]","[0.066, -0.395]",,15.091815880001377,2.7919945800003916,6.009511680000287,"[-0.37962962962962965, 0.31851851851851853, -0.22962962962962963, -0.22037037037037038]","[-0.14907407407407408, 0.22685185185185186, 0.4388888888888889, 0.3972222222222222]","[1, 1, 1, 1]","[0, 0, 0, 0]","[0, 0, 0, 0]","[2.786551299999701, 6.003764900000533, 14.536295300000347, 15.086683999999877]",0.004726480001409072,15.091040880000946,['A1'],['B1'],['C2'],['salmon'],['blue'],['yellow'],1149.4690709999995,None,7.0,1.5637679999999818,1149.4690709999995,None,1156.2189813999994,None,8.0,2.3982108000000153,1153.1524277999997,None,8.0,3.0484470999999758,1151.1031211999998,None,10.0,2.0312450999990688,<function functionImportanceB at 0x000001B0A9518B70>,<function functionImportanceC at 0x000001B0A7651D08>,<function functionImportanceA at 0x000001B0A9518598>,,,1.0,2.3982108000000153,6.0,5.181441700000505,2.0,5.21460180000031,<function functiondiffB at 0x000001B0A95181E0>,<function functiondiffA at 0x000001B0A76511E0>,<function functiondiffC at 0x000001B0A9518510>,,,,,1133.8993218999985,1169.0352890999984,None,1163.8354133999983,None,1158.6022945999994,None,17,001,2022_Jul_19_1152,2leo,2021.2.3,59.98372041848456,
3,13,Plan a romantic date this weekend,Stimuli/13A1.jpg,Stimuli/13A2.jpg,Stimuli/13A3.jpg,Stimuli/13B1.jpg,Stimuli/13B2.jpg,Stimuli/13B3.jpg,Stimuli/13C1.jpg,Stimuli/13C2.jpg,Stimuli/13C3.jpg,,,,,0,18,18,13,,,,,,,,1171.4847295,None,1172.4850928999986,None,1178.4851340999994,None,"[-0.377, 0.138]","[0.306, 0.255]","[0.066, -0.395]","[-0.378, -0.136]","[0.07, 0.393]","[0.304, -0.26]","[-0.2, 0.346]","[0.399, -0.003]","[-0.203, -0.347]",,12.87083432000145,4.955015120001917,17.637966120000783,"[-0.30092592592592593, -0.3277777777777778, -0.18981481481481483]","[-0.08888888888888889, 0.16574074074074074, 0.3287037037037037]","[1, 1, 1]","[0, 0, 0]","[0, 0, 0]","[4.950958100000207, 12.867165399999067, 17.633773399998972]",0.0032527200019103475,17.636847920000946,['A1'],['B1'],['C1'],['salmon'],['blue'],['yellow'],1197.8008330999983,None,8.0,1.4799425000001065,1197.8008330999983,None,1208.5174736999998,None,6.0,3.3819375000002765,1203.484040899999,None,7.0,5.015357199999926,1199.4010443999996,None,9.0,4.114157699999851,<function functionImportanceB at 0x000001B0A37FF620>,<function functionImportanceC at 0x000001B0A37FF598>,<function functionImportanceA at 0x000001B0A9518BF8>,,,3.0,3.3819375000002765,6.0,3.4809638999995514,2.0,2.4649463999994623,<function functiondiffA at 0x000001B0A9518158>,<function functiondiffB at 0x000001B0A9518F28>,<function functiondiffC at 0x000001B0A37FF048>,,,,,1179.6831034999996,1217.8670856999997,None,1211.8841739,None,1215.4022812999992,None,17,001,2022_Jul_19_1152,2leo,2021.2.3,59.98372041848456,
3,43,Plan your dream house,Stimuli/43A1.jpg,Stimuli/43A2.jpg,Stimuli/43A3.jpg,Stimuli/43B1.jpg,Stimuli/43B2.jpg,Stimuli/43B3.jpg,Stimuli/43C1.jpg,Stimuli/43C2.jpg,Stimuli/43C3.jpg,,,,,0,19,19,43,,,,,,,,1222.599956,None,1223.600271199999,None,1229.6002122999998,None,"[-0.203, -0.347]","[-0.2, 0.346]","[0.399, -0.003]","[0.304, -0.26]","[-0.378, -0.136]","[0.07, 0.393]","[0.066, -0.395]","[-0.377, 0.138]","[0.306, 0.255]",,24.97619864000262,18.409921740001664,10.8268734400026,"[0.05, -0.3101851851851852, 0.38055555555555554]","[-0.3472222222222222, -0.1685185185185185, -0.032407407407407406]","[1, 1, 1]","[0, 0, 0]","[0, 0, 0]","[10.811954400000104, 18.39515989999927, 24.961630100000548]",0.013969940002425574,24.975553540001783,['A3'],['B2'],['C1'],['yellow'],['salmon'],['blue'],1256.1827472999994,None,9.0,3.4637327999989793,1256.1827472999994,None,1265.7990969999992,None,9.0,3.331862800001545,1263.4991947999988,None,9.0,2.2484825999999885,1259.7160502999996,None,7.0,3.7812336000006326,<function functionImportanceB at 0x000001B0A37FF7B8>,<function functionImportanceC at 0x000001B0A37FF1E0>,<function functionImportanceA at 0x000001B0A37FF378>,,,7.0,3.331862800001545,6.0,2.9644306000009237,5.0,5.597931399999652,<function functiondiffA at 0x000001B0A37FF488>,<function functiondiffC at 0x000001B0A37FF730>,<function functiondiffB at 0x000001B0A37FF400>,,,,,1230.7351052999984,1272.0823505999997,None,1269.082450599999,None,1274.4323221999985,None,17,001,2022_Jul_19_1152,2leo,2021.2.3,59.98372041848456,
3,21,Plan your sandwich for lunch,Stimuli/21A1.jpg,Stimuli/21A2.jpg,Stimuli/21A3.jpg,Stimuli/21B1.jpg,Stimuli/21B2.jpg,Stimuli/21B3.jpg,Stimuli/21C1.jpg,Stimuli/21C2.jpg,Stimuli/21C3.jpg,,,,,0,20,20,21,,,,,,,,1279.5485813999985,None,1280.5487385999986,None,1286.5486899999996,None,"[0.066, -0.395]","[-0.377, 0.138]","[0.306, 0.255]","[-0.203, -0.347]","[-0.2, 0.346]","[0.399, -0.003]","[0.304, -0.26]","[-0.378, -0.136]","[0.07, 0.393]",,7.685388020001483,13.369224920001216,10.968951920001928,"[-0.33796296296296297, 0.33611111111111114, -0.1398148148148148]","[0.09351851851851851, -0.2037037037037037, 0.32685185185185184]","[1, 1, 1]","[0, 0, 0]","[0, 0, 0]","[7.683407399999851, 10.966519800000242, 13.366990500000611]",0.0014703200013173046,13.367911220000678,['A2'],['B2'],['C1'],['salmon'],['yellow'],['blue'],1301.5148384999993,None,8.0,1.8464633999992657,1301.5148384999993,None,1310.5146112999992,None,9.0,2.3318400000007387,1308.281328699999,None,10.0,2.2150359000006574,1303.4147986999997,None,2.0,4.831352299999708,<function functionImportanceB at 0x000001B0A9518D90>,<function functionImportanceC at 0x000001B0A9518950>,<function functionImportanceA at 0x000001B0A9518AE8>,,,1.0,2.3318400000007387,3.0,1.9812762000001385,2.0,3.14802249999957,<function functiondiffC at 0x000001B0A37FF9D8>,<function functiondiffB at 0x000001B0A37FFC80>,<function functiondiffA at 0x000001B0A37FF268>,,,,,1287.6628375,1312.814538499999,None,1320.1977210999994,None,1317.0478762999992,None,17,001,2022_Jul_19_1152,2leo,2021.2.3,59.98372041848456,
3,9,Plan a picnic with friends,Stimuli/9A1.jpg,Stimuli/9A2.jpg,Stimuli/9A3.jpg,Stimuli/9B1.jpg,Stimuli/9B2.jpg,Stimuli/9B3.jpg,Stimuli/9C1.jpg,Stimuli/9C2.jpg,Stimuli/9C3.jpg,,,,,0,21,21,9,,,,,,,,1321.7138671999983,None,1322.7141709999996,None,1328.7140510999998,None,"[0.07, 0.393]","[-0.378, -0.136]","[0.304, -0.26]","[0.306, 0.255]","[-0.377, 0.138]","[0.066, -0.395]","[0.399, -0.003]","[-0.2, 0.346]","[-0.203, -0.347]",,21.241820860008374,16.15911856000821,9.159657760008486,"[-0.16944444444444445, -0.32222222222222224, -0.33796296296296297]","[0.28055555555555556, 0.11574074074074074, -0.17592592592592593]","[1, 1, 1]","[0, 0, 0]","[0, 0, 0]","[9.149055500000031, 16.1487333999994, 21.23175059999994]",0.009544160007862956,21.2412732600078,['A2'],['B2'],['C2'],['yellow'],['blue'],['salmon'],1355.7298402999986,None,8.0,2.813983100000769,1355.7298402999986,None,1365.0461061999995,None,9.0,3.9153818000013416,1368.984225799999,None,7.0,4.414890699999887,1359.8966242999995,None,8.0,4.931062499999825,<function functionImportanceB at 0x000001B0A37FFBF8>,<function functionImportanceA at 0x000001B0A7651B70>,<function functionImportanceC at 0x000001B0A37FFD90>,,,5.0,3.9153818000013416,3.0,3.964906899998823,3.0,3.5143342000010307,<function functiondiffB at 0x000001B0A37FF0D0>,<function functiondiffA at 0x000001B0A37FF158>,<function functiondiffC at 0x000001B0A37FF6A8>,,,,,1334.0329643999994,1379.8793331999987,None,1375.9128177999992,None,1372.279622099999,None,17,001,2022_Jul_19_1152,2leo,2021.2.3,59.98372041848456,
3,37,Plan your cleaning routine ,Stimuli/37A1.jpg,Stimuli/37A2.jpg,Stimuli/37A3.jpg,Stimuli/37B1.jpg,Stimuli/37B2.jpg,Stimuli/37B3.jpg,Stimuli/37C1.jpg,Stimuli/37C2.jpg,Stimuli/37C3.jpg,,,,,0,22,22,37,,,,,,,,1383.2623421999997,None,1384.2626683999988,None,1390.2623846999995,None,"[0.07, 0.393]","[0.304, -0.26]","[-0.378, -0.136]","[0.306, 0.255]","[0.066, -0.395]","[-0.377, 0.138]","[0.399, -0.003]","[-0.203, -0.347]","[-0.2, 0.346]",,8.517676740000752,13.167834640000365,17.867907040001228,"[-0.3851851851851852, 0.05277777777777778, -0.16296296296296298]","[-0.12037037037037036, -0.39444444444444443, -0.3712962962962963]","[1, 1, 1]","[0, 0, 0]","[0, 0, 0]","[8.50760629999968, 13.157448300000397, 17.857378699998662]",0.009469240001635626,17.866592140000648,['A3'],['B2'],['C2'],['yellow'],['blue'],['salmon'],1409.745107499999,None,8.0,2.597256999999445,1409.745107499999,None,1418.8949085999993,None,7.0,4.498965099999623,1412.4448700999983,None,9.0,3.747011700001167,1416.2116162999992,None,6.0,2.665433900001517,<function functionImportanceC at 0x000001B0A37FF2F0>,<function functionImportanceB at 0x000001B0A95187B8>,<function functionImportanceA at 0x000001B0A76510D0>,,,1.0,4.498965099999623,5.0,4.514768799999729,4.0,3.9810699000008754,<function functiondiffB at 0x000001B0A37FFA60>,<function functiondiffC at 0x000001B0A7651158>,<function functiondiffA at 0x000001B0A37FFE18>,,,,,1391.4043008999997,1427.3446968999997,None,1429.7946474,None,1423.344903199999,None,17,001,2022_Jul_19_1152,2leo,2021.2.3,59.98372041848456,
3,35,Plan how you want to do your grocery shopping ,Stimuli/35A1.jpg,Stimuli/35A2.jpg,Stimuli/35A3.jpg,Stimuli/35B1.jpg,Stimuli/35B2.jpg,Stimuli/35B3.jpg,Stimuli/35C1.jpg,Stimuli/35C2.jpg,Stimuli/35C3.jpg,,,,,0,23,23,35,,,,,,,,1433.8273764999994,None,1434.8277795999984,None,1440.8277663999997,None,"[0.304, -0.26]","[-0.378, -0.136]","[0.07, 0.393]","[0.066, -0.395]","[-0.377, 0.138]","[0.306, 0.255]","[-0.203, -0.347]","[-0.2, 0.346]","[0.399, -0.003]",,7.238865879999139,16.3057175799986,9.139076479999858,"[0.002777777777777778, -0.14814814814814814, 0.36018518518518516]","[0.3398148148148148, 0.33796296296296297, 0.2675925925925926]","[1, 1, 1]","[0, 0, 0]","[0, 0, 0]","[7.226263000000472, 9.126076800001101, 16.292839200001254]",0.011988779999228427,16.304530579998755,['A3'],['B3'],['C2'],['yellow'],['blue'],['salmon'],1458.811642999999,None,9.0,2.3632808000002115,1458.811642999999,None,1468.0436338,None,7.0,6.198380600000746,1461.2436631,None,10.0,3.9144784000000072,1465.2452152999995,None,8.0,2.8316807999999583,<function functionImportanceC at 0x000001B0A7BC89D8>,<function functionImportanceB at 0x000001B0A7BC8A60>,<function functionImportanceA at 0x000001B0A95180D0>,,,-0.0,6.198380600000746,5.0,6.031134499999098,3.0,2.414988099999391,<function functiondiffA at 0x000001B0A37FFB70>,<function functiondiffC at 0x000001B0A9518620>,<function functiondiffB at 0x000001B0A37FFF28>,,,,,1442.0339927999994,1480.259833799999,None,1474.2100253999997,None,1483.0264144999983,None,17,001,2022_Jul_19_1152,2leo,2021.2.3,59.98372041848456,
3,29,Plan a day in the mountains ,Stimuli/29A1.jpg,Stimuli/29A2.jpg,Stimuli/29A3.jpg,Stimuli/29B1.jpg,Stimuli/29B2.jpg,Stimuli/29B3.jpg,Stimuli/29C1.jpg,Stimuli/29C2.jpg,Stimuli/29C3.jpg,,,,,0,24,24,29,,,,,,,,1484.9426019999992,None,1485.9429772999993,None,1491.9428880999985,None,"[-0.2, 0.346]","[-0.203, -0.347]","[0.399, -0.003]","[-0.377, 0.138]","[0.066, -0.395]","[0.306, 0.255]","[-0.378, -0.136]","[0.304, -0.26]","[0.07, 0.393]",,8.522027259999959,14.571896760000527,19.655526360000295,"[-0.15648148148148147, 0.075, -0.32037037037037036]","[-0.3055555555555556, -0.42685185185185187, -0.08796296296296297]","[1, 1, 1]","[0, 0, 0]","[0, 0, 0]","[8.50964550000026, 14.55926730000101, 19.642732700000124]",0.01185666000128549,19.654255760000524,['A2'],['B2'],['C1'],['blue'],['yellow'],['salmon'],1513.242096599999,None,1.0,3.495947100000194,1513.242096599999,None,1516.858757099999,None,3.0,4.0977151000006415,1520.9254625999984,None,5.0,6.248078700000406,1527.1752158,None,3.0,2.7152677000012773,<function functionImportanceA at 0x000001B0A7BC8950>,<function functionImportanceC at 0x000001B0A7BC8510>,<function functionImportanceB at 0x000001B0A7BC8840>,,,10.0,4.0977151000006415,10.0,1.8646936000004644,10.0,3.1473596999985602,<function functiondiffB at 0x000001B0A37FFEA0>,<function functiondiffC at 0x000001B0A37FFAE8>,<function functiondiffA at 0x000001B0A6E641E0>,,,,,1493.1144589999985,1533.0416781999993,None,1534.675088599999,None,1529.8919339999993,None,17,001,2022_Jul_19_1152,2leo,2021.2.3,59.98372041848456,
3,42,Plan how to draw a painting ,Stimuli/42A1.jpg,Stimuli/42A2.jpg,Stimuli/42A3.jpg,Stimuli/42B1.jpg,Stimuli/42B2.jpg,Stimuli/42B3.jpg,Stimuli/42C1.jpg,Stimuli/42C2.jpg,Stimuli/42C3.jpg,,,,,0,25,25,42,,,,,,,,1536.0411728,None,1537.0416559999994,None,1543.041545,None,"[0.399, -0.003]","[-0.203, -0.347]","[-0.2, 0.346]","[0.07, 0.393]","[0.304, -0.26]","[-0.378, -0.136]","[0.306, 0.255]","[0.066, -0.395]","[-0.377, 0.138]",,7.110819120000087,16.859793520001404,12.577064720000635,"[-0.15092592592592594, -0.3, 0.05925925925925926]","[-0.2935185185185185, 0.13240740740740742, 0.34074074074074073]","[1, 1, 1]","[0, 0, 0]","[0, 0, 0]","[7.095716400001038, 12.561342000000877, 16.844488000000638]",0.014600220001739217,16.85899962000076,['A2'],['B1'],['C3'],['blue'],['salmon'],['yellow'],1561.6407602,None,4.0,2.4633779999985563,1561.6407602,None,1568.4407455,None,5.0,4.664909000000989,1572.9739046999985,None,7.0,2.3817101000004186,1564.1742798999985,None,7.0,4.097750400000223,<function functionImportanceB at 0x000001B0A7BC8400>,<function functionImportanceA at 0x000001B0A37FF950>,<function functionImportanceC at 0x000001B0A7BC88C8>,,,4.0,4.664909000000989,3.0,4.114489700001286,6.0,3.7476588999998057,<function functiondiffA at 0x000001B0A37FFD08>,<function functiondiffB at 0x000001B0A7BC8D90>,<function functiondiffC at 0x000001B0A7BC8378>,,,,,1544.312101899999,1583.2404702999993,None,1575.3738337999985,None,1579.4737048999996,None,17,001,2022_Jul_19_1152,2leo,2021.2.3,59.98372041848456,
3,40,Plan to see a sports event ,Stimuli/40A1.jpg,Stimuli/40A2.jpg,Stimuli/40A3.jpg,Stimuli/40B1.jpg,Stimuli/40B2.jpg,Stimuli/40B3.jpg,Stimuli/40C1.jpg,Stimuli/40C2.jpg,Stimuli/40C3.jpg,,,,,0,26,26,40,,,,,,,,1588.5897043999994,None,1589.5900180999997,None,1595.5899729999983,None,"[-0.2, 0.346]","[0.399, -0.003]","[-0.203, -0.347]","[-0.377, 0.138]","[0.306, 0.255]","[0.066, -0.395]","[-0.378, -0.136]","[0.07, 0.393]","[0.304, -0.26]",,17.968702180001856,12.534875180001109,19.885009780000473,"[0.075, -0.1685185185185185, 0.33240740740740743]","[-0.3592592592592593, -0.35555555555555557, -0.2898148148148148]","[1, 1, 1]","[0, 0, 0]","[0, 0, 0]","[12.532024300000558, 17.966113500000574, 19.881908700001077]",0.002003180001338478,19.88360668000132,['A3'],['B3'],['C3'],['yellow'],['blue'],['salmon'],1617.2559008999997,None,2.0,7.813169799999741,1617.2559008999997,None,1625.1724583999985,None,5.0,2.6642038999998476,1627.822342899999,None,0.0,3.9982170000002952,1631.9722591999998,None,7.0,2.815036300000429,<function functionImportanceA at 0x000001B0A7BC8730>,<function functionImportanceC at 0x000001B0AE23A510>,<function functionImportanceB at 0x000001B0A7BC8048>,,,5.0,2.6642038999998476,6.0,2.7644063999996433,1.0,4.5141313999993145,<function functiondiffB at 0x000001B0A7BC8B70>,<function functiondiffC at 0x000001B0A7BC81E0>,<function functiondiffA at 0x000001B0A37FF510>,,,,,1596.8913252999992,1639.1721593999991,None,1643.5218178999985,None,1634.6723014,None,17,001,2022_Jul_19_1152,2leo,2021.2.3,59.98372041848456,
3,26,Plan how to wash one round of your laundry ,Stimuli/26A1.jpg,Stimuli/26A2.jpg,Stimuli/26A3.jpg,Stimuli/26B1.jpg,Stimuli/26B2.jpg,Stimuli/26B3.jpg,Stimuli/26C1.jpg,Stimuli/26C2.jpg,Stimuli/26C3.jpg,,,,,0,27,27,26,,,,,,,,1645.8048076999985,None,1646.8051778999998,None,1652.8049938999993,None,"[-0.203, -0.347]","[-0.2, 0.346]","[0.399, -0.003]","[0.304, -0.26]","[-0.378, -0.136]","[0.07, 0.393]","[0.066, -0.395]","[-0.377, 0.138]","[0.306, 0.255]",,9.600747659998888,16.88446735999787,13.901126959997782,"[-0.19074074074074074, 0.075, 0.06666666666666667]","[-0.3490740740740741, -0.35833333333333334, 0.43148148148148147]","[1, 1, 1]","[0, 0, 0]","[0, 0, 0]","[9.599439599998732, 13.899300799999764, 16.882710899999438]",0.0009044599974004086,16.883441159998256,['A1'],['B3'],['C1'],['yellow'],['salmon'],['blue'],1671.2711535999988,None,8.0,1.5471803000000364,1671.2711535999988,None,1679.3544408999987,None,8.0,4.49827230000119,1683.8709098999989,None,6.0,2.581454899998789,1672.8875394999995,None,8.0,6.464431899999909,<function functionImportanceB at 0x000001B0A7BC86A8>,<function functionImportanceA at 0x000001B0A7BC8BF8>,<function functionImportanceC at 0x000001B0AE23A048>,,,7.0,4.49827230000119,3.0,4.664253599999938,4.0,3.497433299999102,<function functiondiffB at 0x000001B0A7BC8C80>,<function functiondiffC at 0x000001B0A37FF8C8>,<function functiondiffA at 0x000001B0A7BC8268>,,,,,1653.9041320999986,1689.9708089999986,None,1693.4372963999995,None,1686.4541003999984,None,17,001,2022_Jul_19_1152,2leo,2021.2.3,59.98372041848456,
3,32,Plan how you want to relax after a workday,Stimuli/32A1.jpg,Stimuli/32A2.jpg,Stimuli/32A3.jpg,Stimuli/32B1.jpg,Stimuli/32B2.jpg,Stimuli/32B3.jpg,Stimuli/32C1.jpg,Stimuli/32C2.jpg,Stimuli/32C3.jpg,,,,,0,28,28,32,,,,,,,,1697.619977799999,None,1698.620352,None,1704.6203403,None,"[-0.203, -0.347]","[-0.2, 0.346]","[0.399, -0.003]","[0.304, -0.26]","[-0.378, -0.136]","[0.07, 0.393]","[0.066, -0.395]","[-0.377, 0.138]","[0.306, 0.255]",,26.535256480003227,22.66864978000376,9.30294748000415,"[0.2722222222222222, 0.03333333333333333, 0.43333333333333335]","[0.1824074074074074, 0.3962962962962963, 0.05092592592592592]","[1, 1, 1]","[0, 0, 0]","[0, 0, 0]","[9.298915800000032, 22.665004299999055, 26.531836499998462]",0.0027843800035043387,26.53444208000292,['A3'],['B3'],['C3'],['blue'],['yellow'],['salmon'],1734.619189699999,None,6.0,2.1798389999985375,1734.619189699999,None,1737.956262399999,None,9.0,5.097833300000275,1745.7022902999997,None,10.0,4.281749100000525,1742.752438899999,None,9.0,3.714989300000525,<function functionImportanceA at 0x000001B0AE23A7B8>,<function functionImportanceB at 0x000001B0AE23AA60>,<function functionImportanceC at 0x000001B0AE23A730>,,,7.0,5.097833300000275,9.0,3.0145747999995365,8.0,3.9979050000001735,<function functiondiffC at 0x000001B0AE23A488>,<function functiondiffB at 0x000001B0AE23A9D8>,<function functiondiffA at 0x000001B0AE23A268>,,,,,1707.6201100999988,1749.9689182999991,None,1758.4022410999987,None,1754.2189221999997,None,17,001,2022_Jul_19_1152,2leo,2021.2.3,59.98372041848456,
3,36,Plan your shopping for new clothing,Stimuli/36A1.jpg,Stimuli/36A2.jpg,Stimuli/36A3.jpg,Stimuli/36B1.jpg,Stimuli/36B2.jpg,Stimuli/36B3.jpg,Stimuli/36C1.jpg,Stimuli/36C2.jpg,Stimuli/36C3.jpg,,,,,0,29,29,36,,,,,,,,1760.5848780999986,None,1761.5853918999983,None,1767.5851534999983,None,"[-0.378, -0.136]","[0.304, -0.26]","[0.07, 0.393]","[-0.2, 0.346]","[-0.203, -0.347]","[0.399, -0.003]","[-0.377, 0.138]","[0.066, -0.395]","[0.306, 0.255]",,7.3470423799990385,13.347333079998862,2.781043380000483,"[-0.3537037037037037, -0.36666666666666664, 0.4388888888888889]","[0.08796296296296297, -0.1685185185185185, 0.01574074074074074]","[1, 1, 1]","[0, 0, 0]","[0, 0, 0]","[2.764282000000094, 7.330821899999137, 13.330641399999877]",0.015814379999937955,13.34640047999892,['A1'],['B3'],['C1'],['salmon'],['blue'],['yellow'],1782.5179742,None,9.0,2.1969083999993018,1782.5179742,None,1784.8180549999997,None,10.0,2.8319547999999486,1787.6345782999997,None,10.0,2.5988105999986146,1790.2511685999998,None,8.0,5.081872900000235,<function functionImportanceA at 0x000001B0AE23ABF8>,<function functionImportanceC at 0x000001B0AE23AB70>,<function functionImportanceB at 0x000001B0AE23A400>,,,9.0,2.8319547999999486,2.0,2.4814045000002807,8.0,3.9478030999998737,<function functiondiffC at 0x000001B0A7BC82F0>,<function functiondiffB at 0x000001B0AE23A158>,<function functiondiffA at 0x000001B0AE23A598>,,,,,1768.7025601999994,1795.317792599999,None,1801.8341609999989,None,1797.8677782999985,None,17,001,2022_Jul_19_1152,2leo,2021.2.3,59.98372041848456,
3,38,Plan how you want to go for a run,Stimuli/38A1.jpg,Stimuli/38A2.jpg,Stimuli/38A3.jpg,Stimuli/38B1.jpg,Stimuli/38B2.jpg,Stimuli/38B3.jpg,Stimuli/38C1.jpg,Stimuli/38C2.jpg,Stimuli/38C3.jpg,,,,,0,30,30,38,,,,,,,,1813.9672413999997,None,1814.9671707999987,None,1820.9670893999992,None,"[0.306, 0.255]","[0.066, -0.395]","[-0.377, 0.138]","[0.399, -0.003]","[-0.203, -0.347]","[-0.2, 0.346]","[0.07, 0.393]","[0.304, -0.26]","[-0.378, -0.136]",,9.63215202000174,15.781928120000885,5.06582212000103,"[0.34074074074074073, 0.08148148148148149, 0.4101851851851852]","[-0.21296296296296297, -0.33240740740740743, -0.03611111111111111]","[1, 1, 1]","[0, 0, 0]","[0, 0, 0]","[5.064415300001201, 9.631289700000707, 15.780865700000504]",0.00037012000211689156,15.78117112000109,['A2'],['B1'],['C2'],['salmon'],['yellow'],['blue'],1838.4329549999984,None,7.0,1.7807002999998076,1838.4329549999984,None,1846.9663435999992,None,7.0,2.148745600001348,1849.2160568999989,None,8.0,2.6818212999987736,1840.2831993,None,6.0,6.664489600001616,<function functionImportanceB at 0x000001B0AE23AAE8>,<function functionImportanceA at 0x000001B0AE23A6A8>,<function functionImportanceC at 0x000001B0AE5F7598>,,,5.0,2.148745600001348,6.0,3.7975571999995736,6.0,5.714433499999359,<function functiondiffA at 0x000001B0AE23A2F0>,<function functiondiffC at 0x000001B0AE23A840>,<function functiondiffB at 0x000001B0AE23A620>,,,,,1822.1680135999995,1855.6326998999994,None,1851.799565199999,None,1858.0494065999992,None,17,001,2022_Jul_19_1152,2leo,2021.2.3,59.98372041848456,
3,12,Plan the ingredients to mix yourself a cocktail,Stimuli/12A1.jpg,Stimuli/12A2.jpg,Stimuli/12A3.jpg,Stimuli/12B1.jpg,Stimuli/12B2.jpg,Stimuli/12B3.jpg,Stimuli/12C1.jpg,Stimuli/12C2.jpg,Stimuli/12C3.jpg,,,,,0,31,31,12,,,,,,,,1863.281997099999,None,1864.2825372999996,None,1870.282243399999,None,"[-0.378, -0.136]","[0.07, 0.393]","[0.304, -0.26]","[-0.377, 0.138]","[0.306, 0.255]","[0.066, -0.395]","[-0.2, 0.346]","[0.399, -0.003]","[-0.203, -0.347]",,9.55411647999972,12.154093479999574,14.12104238000029,"[0.049074074074074076, 0.2712962962962963, 0.43703703703703706]","[0.3296296296296296, 0.25833333333333336, -0.07314814814814814]","[1, 1, 1]","[0, 0, 0]","[0, 0, 0]","[9.550943300000654, 12.150646699999925, 14.117362900000444]",0.0026484800000616815,14.11977558000035,['A2'],['B2'],['C2'],['salmon'],['blue'],['yellow'],1886.015046999999,None,0.0,2.030523600000379,1886.015046999999,None,1891.5983658999994,None,2.0,3.4318026000000827,1888.1151667999984,None,5.0,3.4478169000012713,1895.031599,None,1.0,4.081943299999693,<function functionImportanceC at 0x000001B0AE5F7B70>,<function functionImportanceA at 0x000001B0A9518D08>,<function functionImportanceB at 0x000001B0AE23A1E0>,,,8.0,3.4318026000000827,9.0,2.2145945000011125,10.0,2.1475614000009955,<function functiondiffB at 0x000001B0AE23A0D0>,<function functiondiffA at 0x000001B0AE23AD08>,<function functiondiffC at 0x000001B0AE5F7400>,,,,,1871.4129846999986,1903.4979144999998,None,1901.2648210999996,None,1899.0980590999989,None,17,001,2022_Jul_19_1152,2leo,2021.2.3,59.98372041848456,
3,34,Plan what car you want to buy,Stimuli/34A1.jpg,Stimuli/34A2.jpg,Stimuli/34A3.jpg,Stimuli/34B1.jpg,Stimuli/34B2.jpg,Stimuli/34B3.jpg,Stimuli/34C1.jpg,Stimuli/34C2.jpg,Stimuli/34C3.jpg,,,,,0,32,32,34,,,,,,,,1904.7641955,None,1905.7645715999988,None,1911.7644468999988,None,"[0.066, -0.395]","[0.306, 0.255]","[-0.377, 0.138]","[0.304, -0.26]","[0.07, 0.393]","[-0.378, -0.136]","[-0.203, -0.347]","[0.399, -0.003]","[-0.2, 0.346]",,18.596953480002412,8.747634380002637,14.197381680003673,"[0.028703703703703703, 0.41759259259259257, 0.12407407407407407]","[0.36574074074074076, 0.03796296296296296, -0.39814814814814814]","[1, 1, 1]","[0, 0, 0]","[0, 0, 0]","[8.746154700000261, 14.195689199999833, 18.59584840000025]",0.0007006800024100812,18.596317480003563,['A1'],['B2'],['C2'],['salmon'],['yellow'],['blue'],1933.9135819999992,None,7.0,1.9135188000000198,1933.9135819999992,None,1939.3968276999985,None,10.0,3.2815342000012606,1935.8976666999988,None,9.0,2.4815073999998276,1942.647062,None,8.0,3.015107299999727,<function functionImportanceC at 0x000001B0AE5F7378>,<function functionImportanceA at 0x000001B0AE5F7268>,<function functionImportanceB at 0x000001B0AE5F7158>,,,1.0,3.2815342000012606,0.0,2.7303893999996944,2.0,2.2646936000001006,<function functiondiffA at 0x000001B0AE23AD90>,<function functiondiffB at 0x000001B0AE23A8C8>,<function functiondiffC at 0x000001B0AE23AC80>,,,,,1914.8490852999985,1949.7301073999988,None,1945.0299412999993,None,1947.6802000999996,None,17,001,2022_Jul_19_1152,2leo,2021.2.3,59.98372041848456,
3,33,Plan the items to decorate your Christmas tree,Stimuli/33A1.jpg,Stimuli/33A2.jpg,Stimuli/33A3.jpg,Stimuli/33B1.jpg,Stimuli/33B2.jpg,Stimuli/33B3.jpg,Stimuli/33C1.jpg,Stimuli/33C2.jpg,Stimuli/33C3.jpg,,,,,0,33,33,33,,,,,,,,1951.7801583,None,1952.7798213999995,None,1958.7799219999997,None,"[-0.203, -0.347]","[-0.2, 0.346]","[0.399, -0.003]","[0.066, -0.395]","[-0.377, 0.138]","[0.306, 0.255]","[0.304, -0.26]","[-0.378, -0.136]","[0.07, 0.393]",,17.8724810599997,13.189354460000686,5.423152760000448,"[0.31851851851851853, 0.041666666666666664, -0.1925925925925926]","[-0.2574074074074074, -0.4064814814814815, 0.30092592592592593]","[1, 1, 1]","[0, 0, 0]","[0, 0, 0]","[5.407496599998922, 13.173845499999516, 17.857300300000134]",0.014674760001071263,17.871681360000366,['A2'],['B1'],['C1'],['salmon'],['blue'],['yellow'],1978.795692399999,None,7.0,1.7462156000001414,1978.795692399999,None,1981.1797823999987,None,7.0,5.3644737000013265,1986.0122075999989,None,7.0,2.5320517999989534,1988.5622854999983,None,1.0,2.481692400000611,<function functionImportanceA at 0x000001B0AE5F7E18>,<function functionImportanceC at 0x000001B0AE5F77B8>,<function functionImportanceB at 0x000001B0AE5F7EA0>,,,7.0,5.3644737000013265,6.0,2.7312538999995013,9.0,3.2810541999988345,<function functiondiffA at 0x000001B0AE5F7510>,<function functiondiffC at 0x000001B0AE5F7D90>,<function functiondiffB at 0x000001B0AE5F7488>,,,,,1960.4702006999996,1993.7621399,None,1991.1456571999988,None,1995.9788763999986,None,17,001,2022_Jul_19_1152,2leo,2021.2.3,59.98372041848456,
3,20,Plan a tea party with your friends,Stimuli/20A1.jpg,Stimuli/20A2.jpg,Stimuli/20A3.jpg,Stimuli/20B1.jpg,Stimuli/20B2.jpg,Stimuli/20B3.jpg,Stimuli/20C1.jpg,Stimuli/20C2.jpg,Stimuli/20C3.jpg,,,,,0,34,34,20,,,,,,,,1998.7785820999998,None,1999.7787624999983,None,2005.7786312999997,None,"[-0.2, 0.346]","[-0.203, -0.347]","[0.399, -0.003]","[-0.378, -0.136]","[0.304, -0.26]","[0.07, 0.393]","[-0.377, 0.138]","[0.066, -0.395]","[0.306, 0.255]",,11.658549220002897,13.6088245200026,6.192344220004088,"[0.07592592592592592, -0.19074074074074074, 0.125]","[-0.36574074074074076, -0.33425925925925926, 0.3398148148148148]","[1, 1, 1]","[0, 0, 0]","[0, 0, 0]","[6.18257789999916, 11.649344199999177, 13.599240800000189]",0.00870322000264423,13.607746920002683,['A2'],['B3'],['C2'],['yellow'],['salmon'],['blue'],2023.411094699999,None,8.0,2.3630435000013676,2023.411094699999,None,2034.360799,None,10.0,2.5984664000006887,2031.8276984999993,None,9.0,2.4820371999994677,2028.2613015999996,None,8.0,5.981005100000402,<function functionImportanceB at 0x000001B0A7BC8488>,<function functionImportanceC at 0x000001B0AE8A6730>,<function functionImportanceA at 0x000001B0AE5F7F28>,,,7.0,2.5984664000006887,8.0,3.114451800000097,7.0,4.081020300000091,<function functiondiffC at 0x000001B0AE8A60D0>,<function functiondiffB at 0x000001B0AE5F7A60>,<function functiondiffA at 0x000001B0AE5F7D08>,,,,,2009.3436580999987,2036.9274731999994,None,2044.4774098999987,None,2040.9441082999983,None,17,001,2022_Jul_19_1152,2leo,2021.2.3,59.98372041848456,
3,6,Plan your wedding,Stimuli/6A1.jpg,Stimuli/6A2.jpg,Stimuli/6A3.jpg,Stimuli/6B1.jpg,Stimuli/6B2.jpg,Stimuli/6B3.jpg,Stimuli/6C1.jpg,Stimuli/6C2.jpg,Stimuli/6C3.jpg,,,,,0,35,35,6,,,,,,,,2047.1279240999993,None,2048.1271708999993,None,2054.127187799999,None,"[-0.377, 0.138]","[0.066, -0.395]","[0.306, 0.255]","[-0.2, 0.346]","[-0.203, -0.347]","[0.399, -0.003]","[-0.378, -0.136]","[0.304, -0.26]","[0.07, 0.393]",,5.382589980004923,13.782510080005522,9.233367580005506,"[0.06111111111111111, 0.03425925925925926, -0.1685185185185185]","[-0.37037037037037035, 0.33240740740740743, -0.3611111111111111]","[1, 1, 1]","[0, 0, 0]","[0, 0, 0]","[5.3785131000004185, 9.22875600000043, 13.778209100000822]",0.0035089800039713737,13.781663480003772,['A2'],['B2'],['C3'],['blue'],['salmon'],['yellow'],2073.4764953999984,None,8.0,1.564137400000618,2073.4764953999984,None,2076.242981399999,None,9.0,5.6642508000004455,2081.9941708999995,None,9.0,4.314843900001506,2086.8427963999984,None,9.0,3.9814199000011286,<function functionImportanceA at 0x000001B0A37FF840>,<function functionImportanceC at 0x000001B0A7BC8158>,<function functionImportanceB at 0x000001B0A7BC8D08>,,,8.0,5.6642508000004455,1.0,2.9813900999997713,7.0,4.914617599999474,<function functiondiffC at 0x000001B0AE5F78C8>,<function functiondiffA at 0x000001B0AE5F7AE8>,<function functiondiffB at 0x000001B0AE5F79D8>,,,,,2059.2321300999993,2089.4927223999985,None,2093.0094746999985,None,2096.1094172999983,None,17,001,2022_Jul_19_1152,2leo,2021.2.3,59.98372041848456,
3,15,Plan your own Pasta for lunch,Stimuli/15A1.jpg,Stimuli/15A2.jpg,Stimuli/15A3.jpg,Stimuli/15B1.jpg,Stimuli/15B2.jpg,Stimuli/15B3.jpg,Stimuli/15C1.jpg,Stimuli/15C2.jpg,Stimuli/15C3.jpg,,,,,0,36,36,15,,,,,,,,2100.1431613999994,None,2101.1424720999985,None,2107.1423910999983,None,"[0.07, 0.393]","[0.304, -0.26]","[-0.378, -0.136]","[0.399, -0.003]","[-0.203, -0.347]","[-0.2, 0.346]","[0.306, 0.255]","[0.066, -0.395]","[-0.377, 0.138]",,6.482443200002308,4.116191400002208,11.449623300000894,"[0.39351851851851855, 0.1287037037037037, -0.3351851851851852]","[-0.002777777777777778, 0.4287037037037037, 0.13148148148148148]","[1, 1, 1]","[0, 0, 0]","[0, 0, 0]","[4.111317700000654, 6.477831600001082, 11.444287400001485]",0.0041999000022769906,11.448472400001265,['A1'],['B1'],['C3'],['salmon'],['yellow'],['blue'],2120.991682,None,10.0,1.4636831999996502,2120.991682,None,2129.1747160999985,None,6.0,2.6153027999989718,2123.2582663999983,None,10.0,3.8315700000002835,2126.3916457999985,None,10.0,2.6819163000000117,<function functionImportanceC at 0x000001B0AE5F7C80>,<function functionImportanceB at 0x000001B0AE5F7620>,<function functionImportanceA at 0x000001B0AE5F7048>,,,-0.0,2.6153027999989718,3.0,2.131051499998648,-0.0,2.114385900000343,<function functiondiffC at 0x000001B0AE23A378>,<function functiondiffA at 0x000001B0AE23AEA0>,<function functiondiffB at 0x000001B0AE23AE18>,,,,,2109.0752865999984,2131.8250009999992,None,2135.059977499999,None,2137.2082045999996,None,17,001,2022_Jul_19_1152,2leo,2021.2.3,59.98372041848456,
3,14,Plan your own Pizza for dinner,Stimuli/14A1.jpg,Stimuli/14A2.jpg,Stimuli/14A3.jpg,Stimuli/14B1.jpg,Stimuli/14B2.jpg,Stimuli/14B3.jpg,Stimuli/14C1.jpg,Stimuli/14C2.jpg,Stimuli/14C3.jpg,,,,,0,37,37,14,,,,,,,,2138.8422561999996,None,2139.8414391999995,None,2145.8413535,None,"[-0.203, -0.347]","[0.399, -0.003]","[-0.2, 0.346]","[0.066, -0.395]","[0.306, 0.255]","[-0.377, 0.138]","[0.304, -0.26]","[0.07, 0.393]","[-0.378, -0.136]",,9.306490599999961,5.590138199999274,14.406856499999776,"[0.3055555555555556, -0.19537037037037036, 0.2611111111111111]","[0.2037037037037037, -0.35185185185185186, -0.2916666666666667]","[1, 1, 1]","[0, 0, 0]","[0, 0, 0]","[5.576964300000327, 9.293677600000592, 14.393517900000006]",0.012411100000463193,14.405726699998922,['A1'],['B2'],['C1'],['blue'],['salmon'],['yellow'],2161.8737684999996,None,8.0,1.5804807000004075,2161.8737684999996,None,2163.5241296999993,None,5.0,3.2156548999992083,2166.7573273999988,None,7.0,2.514478600000075,2169.340572199999,None,9.0,2.4984603999982937,<function functionImportanceA at 0x000001B0AE5F70D0>,<function functionImportanceC at 0x000001B0AE5F7730>,<function functionImportanceB at 0x000001B0AE5F71E0>,,,3.0,3.2156548999992083,1.0,2.4648794000004273,0.0,3.7808954000011,<function functiondiffB at 0x000001B0A9518400>,<function functiondiffC at 0x000001B0AE5F76A8>,<function functiondiffA at 0x000001B0A9518A60>,,,,,2146.9964895999983,2175.5735742999987,None,2177.890215899999,None,2171.790439799999,None,17,001,2022_Jul_19_1152,2leo,2021.2.3,59.98372041848456,
3,24,Plan your Monday morning on a workday ,Stimuli/24A1.jpg,Stimuli/24A2.jpg,Stimuli/24A3.jpg,Stimuli/24B1.jpg,Stimuli/24B2.jpg,Stimuli/24B3.jpg,Stimuli/24C1.jpg,Stimuli/24C2.jpg,Stimuli/24C3.jpg,,,,,0,38,38,24,,,,,,,,2179.8910530999983,None,2180.8901866999986,None,2186.8901782999983,None,"[-0.378, -0.136]","[0.304, -0.26]","[0.07, 0.393]","[-0.377, 0.138]","[0.066, -0.395]","[0.306, 0.255]","[-0.2, 0.346]","[-0.203, -0.347]","[0.399, -0.003]",,8.898744920001263,12.48234782000145,17.050203820001116,"[-0.31851851851851853, 0.06944444444444445, -0.15833333333333333]","[-0.14814814814814814, -0.35555555555555557, 0.2916666666666667]","[1, 1, 1]","[0, 0, 0]","[0, 0, 0]","[8.881690900001558, 12.464911700000812, 17.032658800000718]",0.016628119999950286,17.04808802000116,['A1'],['B2'],['C1'],['yellow'],['blue'],['salmon'],2205.5061266999983,None,9.0,1.7293306000010489,2205.5061266999983,None,2207.2894487999984,None,7.0,4.898242699999173,2214.7889424999994,None,2.0,2.731916299999284,2212.2225243999983,None,8.0,2.548129599999811,<function functionImportanceA at 0x000001B0AE5F72F0>,<function functionImportanceB at 0x000001B0AE8A6400>,<function functionImportanceC at 0x000001B0AE8A6158>,,,5.0,4.898242699999173,2.0,3.4311963000000105,1.0,2.697464699998818,<function functiondiffB at 0x000001B0AE5F7950>,<function functiondiffC at 0x000001B0AE8A66A8>,<function functiondiffA at 0x000001B0A7BC8620>,,,,,2187.9896323999983,2220.222576799999,None,2223.3392706999985,None,2217.5059628,None,17,001,2022_Jul_19_1152,2leo,2021.2.3,59.98372041848456,
3,16,Plan a delicious cake for the birthday of a friend,Stimuli/16A1.jpg,Stimuli/16A2.jpg,Stimuli/16A3.jpg,Stimuli/16B1.jpg,Stimuli/16B2.jpg,Stimuli/16B3.jpg,Stimuli/16C1.jpg,Stimuli/16C2.jpg,Stimuli/16C3.jpg,,,,,0,39,39,16,,,,,,,,2226.2905283,None,2227.305684499999,None,2233.3055306999995,None,"[-0.377, 0.138]","[0.066, -0.395]","[0.306, 0.255]","[-0.378, -0.136]","[0.304, -0.26]","[0.07, 0.393]","[-0.2, 0.346]","[-0.203, -0.347]","[0.399, -0.003]",,18.235434039999745,14.686052240000208,11.836367239999163,"[-0.16111111111111112, 0.03611111111111111, -0.3287037037037037]","[-0.3175925925925926, 0.40370370370370373, 0.15925925925925927]","[1, 1, 1]","[0, 0, 0]","[0, 0, 0]","[11.832131900000604, 14.681971699999849, 18.23183220000101]",0.003195440000126837,18.234762039999623,['A1'],['B3'],['C2'],['salmon'],['blue'],['yellow'],2253.4214911,None,7.0,2.997037900000578,2253.4214911,None,2256.4880163999987,None,5.0,4.297384800000145,2263.904346699999,None,5.0,5.164966599999389,2261.021175,None,8.0,3.0151050000004034,<function functionImportanceA at 0x000001B0AE8A6620>,<function functionImportanceB at 0x000001B0AE8A6A60>,<function functionImportanceC at 0x000001B0AE8A6488>,,,3.0,4.297384800000145,8.0,2.481074900000749,3.0,7.031388700001116,<function functiondiffC at 0x000001B0AE23AF28>,<function functiondiffB at 0x000001B0AE8A6AE8>,<function functiondiffA at 0x000001B0AE8A6950>,,,,,2234.7201803999997,2269.0043700999995,None,2280.2208259,None,2273.2043091999985,None,17,001,2022_Jul_19_1152,2leo,2021.2.3,59.98372041848456,
3,44,Plan a party at your place,Stimuli/44A1.jpg,Stimuli/44A2.jpg,Stimuli/44A3.jpg,Stimuli/44B1.jpg,Stimuli/44B2.jpg,Stimuli/44B3.jpg,Stimuli/44C1.jpg,Stimuli/44C2.jpg,Stimuli/44C3.jpg,,,,,0,40,40,44,,,,,,,,2282.221639899999,None,2283.2206026999993,None,2289.2206180999983,None,"[0.304, -0.26]","[-0.378, -0.136]","[0.07, 0.393]","[0.066, -0.395]","[-0.377, 0.138]","[0.306, 0.255]","[-0.203, -0.347]","[-0.2, 0.346]","[0.399, -0.003]",,18.492373680001037,9.526545079999778,5.860084280000592,"[-0.2064814814814815, 0.31574074074074077, -0.3416666666666667]","[0.32407407407407407, 0.26944444444444443, -0.11574074074074074]","[1, 1, 1]","[0, 0, 0]","[0, 0, 0]","[5.845346699999936, 9.512020799998936, 18.47816099999909]",0.013662580000527669,18.491760480001176,['A2'],['B3'],['C2'],['blue'],['salmon'],['yellow'],2309.303218699999,None,9.0,2.030316300000777,2309.303218699999,None,2311.3865527999988,None,8.0,2.898038799999995,2316.3864275999986,None,7.0,3.3649131000001944,2314.3365409999988,None,9.0,2.0485939999998664,<function functionImportanceA at 0x000001B0AE8A6510>,<function functionImportanceB at 0x000001B0AE8A6BF8>,<function functionImportanceC at 0x000001B0AE8A6268>,,,2.0,2.898038799999995,3.0,2.7978875000007974,-0.0,2.130935099999988,<function functiondiffB at 0x000001B0AE8A67B8>,<function functiondiffA at 0x000001B0A7BC87B8>,<function functiondiffC at 0x000001B0AE8A61E0>,,,,,2290.3408563999983,2324.7027376999995,None,2321.8862698999983,None,2319.7363717999997,None,17,001,2022_Jul_19_1152,2leo,2021.2.3,59.98372041848456,
3,7,Plan your Sunday breakfast ,Stimuli/7A1.jpg,Stimuli/7A2.jpg,Stimuli/7A3.jpg,Stimuli/7B1.jpg,Stimuli/7B2.jpg,Stimuli/7B3.jpg,Stimuli/7C1.jpg,Stimuli/7C2.jpg,Stimuli/7C3.jpg,,,,,0,41,41,7,,,,,,,,2327.6710014,None,2328.6860960999984,None,2334.6860517999994,None,"[0.399, -0.003]","[-0.203, -0.347]","[-0.2, 0.346]","[0.306, 0.255]","[0.066, -0.395]","[-0.377, 0.138]","[0.07, 0.393]","[0.304, -0.26]","[-0.378, -0.136]",,8.226429560005272,17.14366436000637,12.226682860005894,"[-0.15648148148148147, 0.05, 0.0824074074074074]","[-0.3148148148148148, 0.36944444444444446, -0.36203703703703705]","[1, 1, 1]","[0, 0, 0]","[0, 0, 0]","[8.212999499999569, 12.212892499999725, 17.12998559999869]",0.012857060006354004,17.142450360006478,['A2'],['B2'],['C1'],['blue'],['yellow'],['salmon'],2358.185099799999,None,9.0,2.5461035999996966,2358.185099799999,None,2370.751441999999,None,10.0,4.3484322000003885,2362.0018375,None,5.0,3.414559900000313,2366.118068599999,None,6.0,4.74825840000085,<function functionImportanceC at 0x000001B0AED76048>,<function functionImportanceB at 0x000001B0A7BC8E18>,<function functionImportanceA at 0x000001B0AE8A68C8>,,,2.0,4.3484322000003885,0.0,3.2810898999996425,3.0,4.164681899999778,<function functiondiffC at 0x000001B0AED76598>,<function functiondiffB at 0x000001B0AE8A6048>,<function functiondiffA at 0x000001B0AE8A6378>,,,,,2340.5912473999997,2373.684863799999,None,2380.8180435999984,None,2376.8180422999994,None,17,001,2022_Jul_19_1152,2leo,2021.2.3,59.98372041848456,
3,31,Plan your order at a restaurant    ,Stimuli/31A1.jpg,Stimuli/31A2.jpg,Stimuli/31A3.jpg,Stimuli/31B1.jpg,Stimuli/31B2.jpg,Stimuli/31B3.jpg,Stimuli/31C1.jpg,Stimuli/31C2.jpg,Stimuli/31C3.jpg,,,,,0,42,42,31,,,,,,,,2383.1195535999996,None,2384.1343688999987,None,2390.1343686,None,"[-0.377, 0.138]","[0.306, 0.255]","[0.066, -0.395]","[-0.2, 0.346]","[0.399, -0.003]","[-0.203, -0.347]","[-0.378, -0.136]","[0.07, 0.393]","[0.304, -0.26]",,10.078030640002908,20.594812840003215,5.278879940002298,"[0.03981481481481482, -0.37777777777777777, 0.4027777777777778]","[0.3648148148148148, 0.11296296296296296, 0.012962962962962963]","[1, 1, 1]","[0, 0, 0]","[0, 0, 0]","[5.263694900000701, 10.063463599999523, 20.579911599999832]",0.014147840003715828,20.593791240002247,['A1'],['B2'],['C2'],['salmon'],['yellow'],['blue'],2413.8502534,None,4.0,2.313882399999784,2413.8502534,None,2417.683653599999,None,7.0,4.098212400000193,2422.350070999999,None,10.0,3.964821999999913,2420.4169243999986,None,10.0,1.9155062000008911,<function functionImportanceA at 0x000001B0AED76378>,<function functionImportanceB at 0x000001B0AED76268>,<function functionImportanceC at 0x000001B0AED76950>,,,0.0,4.098212400000193,5.0,2.9648125000003347,10.0,2.8806894999997894,<function functiondiffB at 0x000001B0AE8A6598>,<function functiondiffC at 0x000001B0AED76730>,<function functiondiffA at 0x000001B0AE8A6F28>,,,,,2392.8044490999982,2429.133211799999,None,2431.4505304999984,None,2426.2334046999986,None,17,001,2022_Jul_19_1152,2leo,2021.2.3,59.98372041848456,
3,0,Plan a barbecue,Stimuli/0A1.jpg,Stimuli/0A2.jpg,Stimuli/0A3.jpg,Stimuli/0B1.jpg,Stimuli/0B2.jpg,Stimuli/0B3.jpg,Stimuli/0C1.jpg,Stimuli/0C2.jpg,Stimuli/0C3.jpg,,,,,0,43,43,0,,,,,,,,2433.601389399999,None,2434.6163404,None,2440.6163225,None,"[0.066, -0.395]","[0.306, 0.255]","[-0.377, 0.138]","[-0.203, -0.347]","[0.399, -0.003]","[-0.2, 0.346]","[0.304, -0.26]","[0.07, 0.393]","[-0.378, -0.136]",,10.632216520003567,7.1989694200037775,13.532937720003247,"[-0.14444444444444443, -0.35648148148148145, -0.3537037037037037]","[0.3527777777777778, 0.15462962962962962, -0.1814814814814815]","[1, 1, 1]","[0, 0, 0]","[0, 0, 0]","[7.183046500000273, 10.616506700000173, 13.51676740000039]",0.01508072000251559,13.531437020003068,['A3'],['B3'],['C3'],['blue'],['salmon'],['yellow'],2457.0656856999994,None,10.0,1.9301087999992887,2457.0656856999994,None,2467.1989268999987,None,10.0,5.498172599998725,2459.0658004999987,None,10.0,3.5810806000008597,2462.6657566999984,None,10.0,3.1482138999999734,<function functionImportanceC at 0x000001B0AED767B8>,<function functionImportanceB at 0x000001B0AED76400>,<function functionImportanceA at 0x000001B0AED76620>,,,0.0,5.498172599998725,0.0,1.797735799998918,-0.0,1.9810108999990916,<function functiondiffB at 0x000001B0AED76D08>,<function functiondiffC at 0x000001B0AED76D90>,<function functiondiffA at 0x000001B0AED76C80>,,,,,2443.0811552999985,2473.3153593999996,None,2476.2984855999985,None,2471.2985070999985,None,17,001,2022_Jul_19_1152,2leo,2021.2.3,59.98372041848456,
3,25,Plan how you want to read a book in your free time ,Stimuli/25A1.jpg,Stimuli/25A2.jpg,Stimuli/25A3.jpg,Stimuli/25B1.jpg,Stimuli/25B2.jpg,Stimuli/25B3.jpg,Stimuli/25C1.jpg,Stimuli/25C2.jpg,Stimuli/25C3.jpg,,,,,0,44,44,25,,,,,,,,2477.2171265999987,None,2478.2319668,None,2484.2319699,None,"[0.306, 0.255]","[-0.377, 0.138]","[0.066, -0.395]","[0.399, -0.003]","[-0.2, 0.346]","[-0.203, -0.347]","[0.07, 0.393]","[-0.378, -0.136]","[0.304, -0.26]",,7.649335879999853,3.4491181800003687,8.382575679999718,"[-0.12777777777777777, 0.08703703703703704, 0.31296296296296294]","[0.2851851851851852, -0.35833333333333334, -0.24814814814814815]","[1, 1, 1]","[0, 0, 0]","[0, 0, 0]","[3.446580100000574, 7.646985600000335, 8.379701100000602]",0.0017641800004639663,8.381406880000213,['A3'],['B2'],['C3'],['blue'],['salmon'],['yellow'],2494.5645207,None,10.0,1.7641263000004983,2494.5645207,None,2500.531866899999,None,8.0,2.4489149000000907,2496.6980725999983,None,10.0,4.080606600000465,2502.997687199999,None,9.0,2.481510799998432,<function functionImportanceC at 0x000001B0AE8A6D90>,<function functionImportanceA at 0x000001B0AE8A62F0>,<function functionImportanceB at 0x000001B0AE8A6E18>,,,0.0,2.4489149000000907,2.0,2.481282499998997,1.0,2.247828900000968,<function functiondiffB at 0x000001B0AED761E0>,<function functiondiffA at 0x000001B0AED766A8>,<function functiondiffC at 0x000001B0AED76F28>,,,,,2485.715102799999,2510.2645359,None,2507.697722699999,None,2505.4479502999984,None,17,001,2022_Jul_19_1152,2leo,2021.2.3,59.98372041848456,
