Condition,N_Scenario,written_scenario,ImageA1,ImageA2,ImageA3,ImageB1,ImageB2,ImageB3,ImageC1,ImageC2,ImageC3,trials_2.thisRepN,trials_2.thisTrialN,trials_2.thisN,trials_2.thisIndex,trial.thisRepN,trial.thisTrialN,trial.thisN,trial.thisIndex,button_2.started,button_2.stopped,button_2.numClicks,button_2.timesOn,button_2.timesOff,text.started,text.stopped,fixationcross1_started,fixationcross1_stopped,Scenario_started,Scenario_stopped,fixationcross2_started,fixationcross2_stopped,A1pos,A2pos,A3pos,B1pos,B2pos,B3pos,C1pos,C2pos,C3pos,﻿Imagesdecision_started,decisiontimeA,decisiontimeB,decisiontimeC,mouse_x,mouse_y,mouse_leftButton,mouse_midButton,mouse_rightButton,mouse_time,mouse_started,mouse_stopped,clicked_optionA,clicked_optionB,clicked_optionC,colour_category_A,colour_category_B,colour_category_C,question_confidence_started,question_confidence_stopped,slider_confidence_response,slider_confidence_rt,slider_confidence_started,slider_confidence_stopped,question_valueA_started,question_valueA_stopped,slider_valueA_response,slider_valueA_rt,question_valueC_started,question_valueC_stopped,slider_valueC_response,slider_valueC_rt,question_valueB_started,question_valueB_stopped,slider_valueB_response,slider_valueB_rt,Importance_First,Importance_Second,Importance_Third,question_diff_started,question_diff_stopped,slider_diffB_response,slider_diffB_rt,slider_diffC_response,slider_diffC_rt,slider_diffA_response,slider_diffA_rt,diff_First,diff_Second,diff_Third,button_3_started,button_3_stopped,text_2_started,text_2_stopped,Imagesdecision_started,question_diffB_started,question_diffB_stopped,question_diffC_started,question_diffC_stopped,question_diffA_started,question_diffA_stopped,participant,session,date,expName,psychopyVersion,frameRate,
3,2,Plan a party to celebrate your birthday,Stimuli/2A1t.jpg,Stimuli/2A2t.jpg,Stimuli/2A3t.jpg,Stimuli/2B1t.jpg,Stimuli/2B2t.jpg,Stimuli/2B3t.jpg,Stimuli/2C1t.jpg,Stimuli/2C2t.jpg,Stimuli/2C3t.jpg,0,0,0,0,,,,,29.502225300000646,None,1,[3.109006799999406],[3.1090198999991117],29.502225300000646,None,84.24118610000005,None,85.25052750000032,None,91.25089760000083,None,"[-0.378, -0.136]","[0.304, -0.26]","[0.07, 0.393]","[-0.2, 0.346]","[-0.203, -0.347]","[0.399, -0.003]","[-0.377, 0.138]","[0.066, -0.395]","[0.306, 0.255]",95.23626660000082,16.60567336999884,13.422668769997472,19.889663569998447,"[-0.20185185185185187, -0.32222222222222224, 0.008333333333333333]","[0.3814814814814815, -0.0787037037037037, -0.3824074074074074]","[1, 1, 1]","[0, 0, 0]","[0, 0, 0]","[13.411458600001424, 16.59490160000132, 19.87827389999984]",0.01033786999869335,19.88844496999809,['A1'],['B1'],['C2'],['blue'],['salmon'],['yellow'],115.5831601000009,None,8.0,8.129760899999383,115.5831601000009,None,125.06650230000014,None,9.0,16.6303280000011,140.44945480000024,None,2.0,7.381650400000581,149.3697518000008,None,9.0,5.748586699999578,<function functionImportanceAt at 0x0000024660E86268>,<function functionImportanceCt at 0x000002466CE6FD90>,<function functionImportanceBt at 0x000002465D861E18>,168.58367910000015,None,1.0,8.830441899999641,6.0,5.71435510000083,0.0,16.6303280000011,<function functiondiffBt at 0x000002460403AD08>,<function functiondiffCt at 0x000002460403AC80>,<function functiondiffAt at 0x000002460403AA60>,,,,,,,,,,,,18,001,2022_Jul_19_1241,2leo,2021.2.3,59.994948425291234,
3,3,Plan one week of vacation,Stimuli/3A1t.jpg,Stimuli/3A2t.jpg,Stimuli/3A3t.jpg,Stimuli/3B1t.jpg,Stimuli/3B2t.jpg,Stimuli/3B3t.jpg,Stimuli/3C1t.jpg,Stimuli/3C2t.jpg,Stimuli/3C3t.jpg,0,1,1,1,,,,,,,,,,,,172.31500310000047,None,173.31508920000124,None,179.3150157,None,"[-0.203, -0.347]","[-0.2, 0.346]","[0.399, -0.003]","[0.304, -0.26]","[-0.378, -0.136]","[0.07, 0.393]","[0.066, -0.395]","[-0.377, 0.138]","[0.306, 0.255]",185.36915370000133,9.32694370000172,14.5768999000029,19.94380640000236,"[-0.14074074074074075, 0.30092592592592593, 0.35]","[0.30185185185185187, -0.27037037037037037, 0.29444444444444445]","[1, 1, 1]","[0, 0, 0]","[0, 0, 0]","[9.311477100000047, 14.56124809999892, 19.927704300000187]",0.014958300002035685,19.942613100001836,['A2'],['B1'],['C3'],['yellow'],['blue'],['salmon'],205.7643560000015,None,5.0,7.26469569999972,205.7643560000015,None,215.03144580000117,None,9.0,10.330337600000348,224.87997300000097,None,5.0,8.948088499999358,234.11314160000074,None,10.0,7.116444400000546,<function functionImportanceAt at 0x000002465B2211E0>,<function functionImportanceCt at 0x000002466CE6FE18>,<function functionImportanceBt at 0x000002466CE6FBF8>,254.92927240000063,None,3.0,8.181160400001318,8.0,9.06426250000004,1.0,10.330337600000348,<function functiondiffAt at 0x000002460403AEA0>,<function functiondiffCt at 0x000002460403AE18>,<function functiondiffBt at 0x000002460403A840>,,,,,,,,,,,,18,001,2022_Jul_19_1241,2leo,2021.2.3,59.994948425291234,
3,17,Plan a day in Barcelona with a friend who is new to the city,Stimuli/17A1.jpg,Stimuli/17A2.jpg,Stimuli/17A3.jpg,Stimuli/17B1.jpg,Stimuli/17B2.jpg,Stimuli/17B3.jpg,Stimuli/17C1.jpg,Stimuli/17C2.jpg,Stimuli/17C3.jpg,,,,,0,0,0,17,,,,,,,,312.1547928,None,313.1444612000014,None,319.1443052000013,None,"[0.07, 0.393]","[0.304, -0.26]","[-0.378, -0.136]","[0.306, 0.255]","[0.066, -0.395]","[-0.377, 0.138]","[0.399, -0.003]","[-0.203, -0.347]","[-0.2, 0.346]",,14.819534610000119,8.902972310001132,21.503168709999954,"[0.03611111111111111, -0.31574074074074077, -0.18055555555555555]","[-0.3416666666666667, -0.11851851851851852, -0.3490740740740741]","[1, 1, 1]","[0, 0, 0]","[0, 0, 0]","[8.916515300001265, 14.816612500000701, 21.49990009999965]",0.0022787100006098626,21.501921110000694,['A3'],['B2'],['C2'],['salmon'],['blue'],['yellow'],342.3100892000002,None,9.0,4.695618800000375,342.3100892000002,None,366.8262955000009,None,4.0,11.49787699999979,347.11031080000066,None,8.0,13.913958699999057,361.0429772000007,None,10.0,5.7149430999998,<function functionImportanceC at 0x0000024604196730>,<function functionImportanceB at 0x000002466CE6F9D8>,<function functionImportanceA at 0x000002460403AF28>,,,0.0,6.197099299999536,6.0,11.49787699999979,10.0,6.314455100000487,<function functiondiffB at 0x000002460403A488>,<function functiondiffC at 0x00000246041969D8>,<function functiondiffA at 0x000002460403A620>,262.2291492000004,None,262.2291492000004,None,320.3253009,378.22599940000146,None,384.44255390000035,None,392.4587941000009,None,18,001,2022_Jul_19_1241,2leo,2021.2.3,59.994948425291234,
3,30,Plan your sport work out for tomorrow,Stimuli/30A1.jpg,Stimuli/30A2.jpg,Stimuli/30A3.jpg,Stimuli/30B1.jpg,Stimuli/30B2.jpg,Stimuli/30B3.jpg,Stimuli/30C1.jpg,Stimuli/30C2.jpg,Stimuli/30C3.jpg,,,,,0,1,1,30,,,,,,,,398.2920608000004,None,399.2919161000009,None,405.2918342000012,None,"[-0.2, 0.346]","[-0.203, -0.347]","[0.399, -0.003]","[-0.377, 0.138]","[0.066, -0.395]","[0.306, 0.255]","[-0.378, -0.136]","[0.304, -0.26]","[0.07, 0.393]",,8.484632699999565,23.95136409999941,17.451749899999413,"[-0.2361111111111111, 0.06388888888888888, 0.33425925925925926]","[0.34074074074074073, 0.3907407407407407, 0.2796296296296296]","[1, 1, 1]","[0, 0, 0]","[0, 0, 0]","[8.474388999999064, 17.440828799999508, 23.94068739999966]",0.009821699999520206,23.950301699998818,['A1'],['B3'],['C3'],['yellow'],['blue'],['salmon'],430.87440330000027,None,7.0,4.680078299999877,430.87440330000027,None,457.7905242000015,None,9.0,8.981591600000684,435.6243946000013,None,5.0,22.147487099999125,466.84005849999994,None,7.0,4.948291799999424,<function functionImportanceC at 0x0000024604196840>,<function functionImportanceA at 0x000002466ABE79D8>,<function functionImportanceB at 0x000002466A14EF28>,,,2.0,5.464475000000675,10.0,8.981591600000684,0.0,10.496601300001203,<function functiondiffB at 0x0000024604196BF8>,<function functiondiffC at 0x0000024604196E18>,<function functiondiffA at 0x0000024604196D90>,,,,,406.4495313000007,471.74014050000005,None,477.20654020000075,None,482.78968260000147,None,18,001,2022_Jul_19_1241,2leo,2021.2.3,59.994948425291234,
3,24,Plan your Monday morning on a workday ,Stimuli/24A1.jpg,Stimuli/24A2.jpg,Stimuli/24A3.jpg,Stimuli/24B1.jpg,Stimuli/24B2.jpg,Stimuli/24B3.jpg,Stimuli/24C1.jpg,Stimuli/24C2.jpg,Stimuli/24C3.jpg,,,,,0,2,2,24,,,,,,,,492.82258189999993,None,493.82271650000075,None,499.82267630000024,None,"[0.07, 0.393]","[-0.378, -0.136]","[0.304, -0.26]","[0.399, -0.003]","[-0.2, 0.346]","[-0.203, -0.347]","[0.306, 0.255]","[-0.377, 0.138]","[0.066, -0.395]",,18.368272159999833,7.635756359999505,13.202133259999755,"[-0.2212962962962963, 0.2962962962962963, 0.10277777777777777]","[0.3527777777777778, 0.22037037037037038, 0.4462962962962963]","[1, 1, 1]","[0, 0, 0]","[0, 0, 0]","[7.6333924999999, 13.19965620000039, 18.366317899999558]",0.0015622600003553089,18.367802259999735,['A1'],['B2'],['C1'],['blue'],['yellow'],['salmon'],519.7717777000016,None,9.0,4.647834699999294,519.7717777000016,None,548.2212316000005,None,10.0,5.581467199999679,535.5548439000013,None,7.0,12.664692500000456,524.4887034000003,None,9.0,11.047161200000119,<function functionImportanceB at 0x000002460403A1E0>,<function functionImportanceC at 0x000002460403A598>,<function functionImportanceA at 0x000002460403A6A8>,,,0.0,5.91437649999898,6.0,5.581467199999679,-0.0,3.7145065999993676,<function functiondiffB at 0x0000024604196D08>,<function functiondiffA at 0x0000024604196950>,<function functiondiffC at 0x0000024604196AE8>,,,,,500.9202025000013,553.804251900001,None,563.4707157000012,None,559.7377168000003,None,18,001,2022_Jul_19_1241,2leo,2021.2.3,59.994948425291234,
3,11,Plan a hike in nature on a free day,Stimuli/11A1.jpg,Stimuli/11A2.jpg,Stimuli/11A3.jpg,Stimuli/11B1.jpg,Stimuli/11B2.jpg,Stimuli/11B3.jpg,Stimuli/11C1.jpg,Stimuli/11C2.jpg,Stimuli/11C3.jpg,,,,,0,3,3,11,,,,,,,,566.6040907000006,None,567.6041365000001,None,573.6038849000015,None,"[-0.378, -0.136]","[0.07, 0.393]","[0.304, -0.26]","[-0.2, 0.346]","[0.399, -0.003]","[-0.203, -0.347]","[-0.377, 0.138]","[0.306, 0.255]","[0.066, -0.395]",,17.28360197999973,7.116838780000762,12.716953880000801,"[0.41388888888888886, 0.36944444444444446, 0.34444444444444444]","[-0.012037037037037037, 0.20925925925925926, -0.23703703703703705]","[1, 1, 1]","[0, 0, 0]","[0, 0, 0]","[7.1069392999997945, 12.706817000000228, 17.273902299999463]",0.009110580000196933,17.28260548000071,['A3'],['B2'],['C2'],['yellow'],['blue'],['salmon'],592.4863089999999,None,6.0,4.529747500000667,592.4863089999999,None,605.1695488000005,None,10.0,6.031897100001515,611.2196123000012,None,3.0,5.965238800001316,597.0864183000012,None,4.0,8.064588100000037,<function functionImportanceB at 0x000002460403A0D0>,<function functionImportanceA at 0x0000024604196F28>,<function functionImportanceC at 0x000002460403A730>,,,6.0,7.497498699998687,4.0,6.031897100001515,-0.0,3.314611200001309,<function functiondiffB at 0x0000024604196598>,<function functiondiffC at 0x0000024604196268>,<function functiondiffA at 0x000002460403AD90>,,,,,574.7290471000015,617.1692711000014,None,624.6858697000007,None,633.085520300001,None,18,001,2022_Jul_19_1241,2leo,2021.2.3,59.994948425291234,
3,9,Plan a picnic with friends,Stimuli/9A1.jpg,Stimuli/9A2.jpg,Stimuli/9A3.jpg,Stimuli/9B1.jpg,Stimuli/9B2.jpg,Stimuli/9B3.jpg,Stimuli/9C1.jpg,Stimuli/9C2.jpg,Stimuli/9C3.jpg,,,,,0,4,4,9,,,,,,,,635.9185774000016,None,636.9186963000011,None,642.9187685000015,None,"[0.07, 0.393]","[-0.378, -0.136]","[0.304, -0.26]","[0.306, 0.255]","[-0.377, 0.138]","[0.066, -0.395]","[0.399, -0.003]","[-0.2, 0.346]","[-0.203, -0.347]",,13.6438549100003,27.426622009999846,7.577560109999467,"[-0.25277777777777777, -0.42777777777777776, 0.325]","[0.337037037037037, -0.09722222222222222, 0.2777777777777778]","[1, 1, 1]","[0, 0, 0]","[0, 0, 0]","[7.573160100000678, 13.639984499999628, 27.42257470000004]",0.0033267099988734117,27.425879909998912,['A2'],['B1'],['C2'],['blue'],['salmon'],['yellow'],676.2174025000004,None,5.0,4.646735099999205,676.2174025000004,None,700.8500869,None,9.0,5.565063000000009,694.1671081000004,None,8.0,6.59837349999907,682.2175199000012,None,1.0,11.747666499999468,<function functionImportanceB at 0x00000246003B4510>,<function functionImportanceC at 0x00000246003B4158>,<function functionImportanceA at 0x000002460403A510>,,,10.0,8.047799699999814,2.0,5.565063000000009,3.0,11.63109330000043,<function functiondiffB at 0x0000024604196B70>,<function functiondiffC at 0x00000246003B4840>,<function functiondiffA at 0x0000024604196C80>,,,,,648.3295541000007,705.250222300001,None,713.4166226000016,None,718.8665481000007,None,18,001,2022_Jul_19_1241,2leo,2021.2.3,59.994948425291234,
3,44,Plan a party at your place,Stimuli/44A1.jpg,Stimuli/44A2.jpg,Stimuli/44A3.jpg,Stimuli/44B1.jpg,Stimuli/44B2.jpg,Stimuli/44B3.jpg,Stimuli/44C1.jpg,Stimuli/44C2.jpg,Stimuli/44C3.jpg,,,,,0,5,5,44,,,,,,,,729.5161828,None,730.516166200001,None,736.5159674000006,None,"[0.399, -0.003]","[-0.2, 0.346]","[-0.203, -0.347]","[0.07, 0.393]","[-0.378, -0.136]","[0.304, -0.26]","[0.306, 0.255]","[-0.377, 0.138]","[0.066, -0.395]",,13.271177099999477,9.238231900000756,5.888476100000844,"[0.030555555555555555, 0.2462962962962963, -0.2037037037037037]","[-0.36666666666666664, -0.3055555555555556, -0.3731481481481482]","[1, 1, 1]","[0, 0, 0]","[0, 0, 0]","[5.875916699998925, 9.225968799999464, 13.25917389999995]",0.011389799999960815,13.270292100000006,['A3'],['B3'],['C3'],['salmon'],['blue'],['yellow'],751.4154332000016,None,10.0,3.113352099999247,751.4154332000016,None,761.6820191000006,None,5.0,5.5479544999998325,758.5820628000001,None,8.0,3.08196130000033,754.6488488000014,None,10.0,3.9310180000011314,<function functionImportanceB at 0x00000246041961E0>,<function functionImportanceC at 0x0000024604196378>,<function functionImportanceA at 0x0000024604196158>,,,0.0,4.397895600000993,2.0,5.5479544999998325,8.0,4.031327699998656,<function functiondiffC at 0x000002460403A400>,<function functiondiffB at 0x00000246041968C8>,<function functiondiffA at 0x0000024604196048>,,,,,737.6720646000012,774.6150382000014,None,767.1819238000007,None,779.0314472000009,None,18,001,2022_Jul_19_1241,2leo,2021.2.3,59.994948425291234,
3,1,Plan how to study for an exam,Stimuli/1A1.jpg,Stimuli/1A2.jpg,Stimuli/1A3.jpg,Stimuli/1B1.jpg,Stimuli/1B2.jpg,Stimuli/1B3.jpg,Stimuli/1C1.jpg,Stimuli/1C2.jpg,Stimuli/1C3.jpg,,,,,0,6,6,1,,,,,,,,782.5811497000013,None,783.58122,None,789.5812400000013,None,"[0.066, -0.395]","[0.306, 0.255]","[-0.377, 0.138]","[0.304, -0.26]","[0.07, 0.393]","[-0.378, -0.136]","[-0.203, -0.347]","[0.399, -0.003]","[-0.2, 0.346]",,15.018584949999422,10.11911014999896,5.502560249999078,"[-0.17592592592592593, 0.25, 0.08148148148148149]","[-0.30277777777777776, -0.2916666666666667, -0.3592592592592593]","[1, 1, 1]","[0, 0, 0]","[0, 0, 0]","[5.50018160000036, 10.116976799999975, 15.016731699999582]",0.0014414499983104179,15.018105949999153,['A1'],['B1'],['C1'],['salmon'],['yellow'],['blue'],806.1639546000006,None,9.0,3.896988500000589,806.1639546000006,None,810.1305792000003,None,8.0,5.481384900000194,818.0969149000011,None,10.0,5.648514800001067,815.6304087000008,None,10.0,2.4820114000012836,<function functionImportanceA at 0x00000246003B48C8>,<function functionImportanceB at 0x00000246003B4268>,<function functionImportanceC at 0x00000246003B4AE8>,,,-0.0,4.2475878999994165,0.0,5.481384900000194,4.0,5.181220699998448,<function functiondiffB at 0x00000246003B4378>,<function functiondiffC at 0x00000246003B4D08>,<function functiondiffA at 0x00000246003B4950>,,,,,790.663183300001,823.7468609000007,None,828.013357400001,None,831.0466088000012,None,18,001,2022_Jul_19_1241,2leo,2021.2.3,59.994948425291234,
3,4,Plan a game night at your place,Stimuli/4A1.jpg,Stimuli/4A2.jpg,Stimuli/4A3.jpg,Stimuli/4B1.jpg,Stimuli/4B2.jpg,Stimuli/4B3.jpg,Stimuli/4C1.jpg,Stimuli/4C2.jpg,Stimuli/4C3.jpg,,,,,0,7,7,4,,,,,,,,835.7463439000003,None,836.7463324,None,842.7464076000015,None,"[0.07, 0.393]","[-0.378, -0.136]","[0.304, -0.26]","[0.306, 0.255]","[-0.377, 0.138]","[0.066, -0.395]","[0.399, -0.003]","[-0.2, 0.346]","[-0.203, -0.347]",,18.930710409998937,5.881227809999473,10.764756110000235,"[0.09166666666666666, -0.2537037037037037, 0.3287037037037037]","[-0.37592592592592594, -0.34814814814814815, -0.31574074074074077]","[1, 1, 1]","[0, 0, 0]","[0, 0, 0]","[5.8773460000011255, 10.760613500000545, 18.927055400001336]",0.003041809999558609,18.930018810000547,['A3'],['B3'],['C3'],['yellow'],['blue'],['salmon'],865.528902600001,None,7.0,3.7311015000013867,865.528902600001,None,870.3122125999998,None,3.0,6.148048600000038,880.1286014000016,None,9.0,4.915166000000681,875.4618745000007,None,9.0,3.315277200001219,<function functionImportanceA at 0x000002460403A378>,<function functionImportanceB at 0x0000024604196EA0>,<function functionImportanceC at 0x00000246003B4C80>,,,0.0,3.48136119999981,1.0,6.148048600000038,8.0,4.96404369999982,<function functiondiffA at 0x00000246003B4598>,<function functiondiffC at 0x00000246003B46A8>,<function functiondiffB at 0x00000246003B41E0>,,,,,846.1335309000006,891.8449572000009,None,889.0616494000005,None,884.0619022999999,None,18,001,2022_Jul_19_1241,2leo,2021.2.3,59.994948425291234,
3,36,Plan your shopping for new clothing,Stimuli/36A1.jpg,Stimuli/36A2.jpg,Stimuli/36A3.jpg,Stimuli/36B1.jpg,Stimuli/36B2.jpg,Stimuli/36B3.jpg,Stimuli/36C1.jpg,Stimuli/36C2.jpg,Stimuli/36C3.jpg,,,,,0,8,8,36,,,,,,,,894.8446737000013,None,895.8447467000005,None,901.8449286000014,None,"[-0.377, 0.138]","[0.306, 0.255]","[0.066, -0.395]","[-0.378, -0.136]","[0.07, 0.393]","[0.304, -0.26]","[-0.2, 0.346]","[0.399, -0.003]","[-0.203, -0.347]",,13.916520069999024,25.766568669998378,6.500475869999718,"[-0.14166666666666666, 0.337037037037037, 0.3453703703703704]","[-0.34444444444444444, 0.24444444444444444, -0.20925925925925926]","[1, 1, 1]","[0, 0, 0]","[0, 0, 0]","[6.498745600001712, 13.915428600001178, 25.76516950000041]",0.0005538699988392182,25.7656662699992,['A2'],['B3'],['C3'],['salmon'],['yellow'],['blue'],929.2104198000015,None,3.0,4.196868999999424,929.2104198000015,None,940.4603864000001,None,9.0,6.332081399999879,933.5105716000016,None,8.0,6.947652199998629,946.776768400001,None,1.0,6.198038000000452,<function functionImportanceC at 0x0000024604196488>,<function functionImportanceA at 0x00000246003B4A60>,<function functionImportanceB at 0x00000246003B4488>,,,10.0,3.214185400000133,4.0,6.332081399999879,1.0,6.36454380000032,<function functiondiffB at 0x00000246003B4E18>,<function functiondiffC at 0x00000246003B4048>,<function functiondiffA at 0x0000024604196A60>,,,,,902.9603352000013,952.9765726000005,None,956.1931017000006,None,963.6096413000014,None,18,001,2022_Jul_19_1241,2leo,2021.2.3,59.994948425291234,
3,37,Plan your cleaning routine ,Stimuli/37A1.jpg,Stimuli/37A2.jpg,Stimuli/37A3.jpg,Stimuli/37B1.jpg,Stimuli/37B2.jpg,Stimuli/37B3.jpg,Stimuli/37C1.jpg,Stimuli/37C2.jpg,Stimuli/37C3.jpg,,,,,0,9,9,37,,,,,,,,969.4923847000009,None,970.4926026000012,None,976.4929265999999,None,"[-0.377, 0.138]","[0.306, 0.255]","[0.066, -0.395]","[-0.2, 0.346]","[0.399, -0.003]","[-0.203, -0.347]","[-0.378, -0.136]","[0.07, 0.393]","[0.304, -0.26]",,6.241470879998815,17.608143979998204,12.691668779998508,"[0.25462962962962965, 0.0824074074074074, -0.14814814814814814]","[0.26944444444444443, 0.3592592592592593, -0.3537037037037037]","[1, 1, 1]","[0, 0, 0]","[0, 0, 0]","[6.236129200000505, 12.685814700000265, 17.602479400000448]",0.004689979999966454,17.607141579999734,['A2'],['B3'],['C2'],['yellow'],['salmon'],['blue'],995.7086764000014,None,7.0,4.447211100001368,995.7086764000014,None,1009.9247124000012,None,3.0,7.198404500000834,1000.2085021000003,None,10.0,4.564698700000008,1004.7918512000015,None,2.0,5.098132299999634,<function functionImportanceC at 0x00000246003B4BF8>,<function functionImportanceB at 0x00000246003B49D8>,<function functionImportanceA at 0x00000246003B4D90>,,,1.0,3.698066099999778,0.0,7.198404500000834,9.0,3.147909499999514,<function functiondiffC at 0x00000246003B4F28>,<function functiondiffA at 0x00000246041966A8>,<function functiondiffB at 0x00000246003B4620>,,,,,977.6205140000002,1024.6912647000008,None,1017.1080810000003,None,1021.5247666000014,None,18,001,2022_Jul_19_1241,2leo,2021.2.3,59.994948425291234,
3,16,Plan a delicious cake for the birthday of a friend,Stimuli/16A1.jpg,Stimuli/16A2.jpg,Stimuli/16A3.jpg,Stimuli/16B1.jpg,Stimuli/16B2.jpg,Stimuli/16B3.jpg,Stimuli/16C1.jpg,Stimuli/16C2.jpg,Stimuli/16C3.jpg,,,,,0,10,10,16,,,,,,,,1027.9076570000016,None,1028.9078390000013,None,1034.9077487000013,None,"[0.07, 0.393]","[0.304, -0.26]","[-0.378, -0.136]","[0.399, -0.003]","[-0.203, -0.347]","[-0.2, 0.346]","[0.306, 0.255]","[0.066, -0.395]","[-0.377, 0.138]",,9.695293069999025,16.79566156999863,25.078669169999557,"[0.018518518518518517, -0.1935185185185185, 0.025]","[0.42962962962962964, 0.35185185185185186, -0.4444444444444444]","[1, 1, 1]","[0, 0, 0]","[0, 0, 0]","[9.678196599999865, 16.77814650000073, 25.06090790000053]",0.016680169997925987,25.077545969998027,['A1'],['B3'],['C2'],['yellow'],['salmon'],['blue'],1061.8899605000006,None,9.0,3.5306178999999247,1061.8899605000006,None,1078.7563889000012,None,10.0,2.7652629999993223,1081.606380000001,None,2.0,5.264962400000513,1065.70694,None,9.0,13.246805699998731,<function functionImportanceB at 0x0000024600A7D268>,<function functionImportanceA at 0x00000246003B4730>,<function functionImportanceC at 0x0000024600A7DAE8>,,,1.0,5.231274100000519,9.0,2.7652629999993223,1.0,4.14776829999937,<function functiondiffA at 0x00000246003B42F0>,<function functiondiffC at 0x0000024600A7D510>,<function functiondiffB at 0x0000024600A7DE18>,,,,,1036.3590956000007,1095.9892685000013,None,1090.9728087000003,None,1086.7896747000013,None,18,001,2022_Jul_19_1241,2leo,2021.2.3,59.994948425291234,
3,8,Plan the interior of your living-room ,Stimuli/8A1.jpg,Stimuli/8A2.jpg,Stimuli/8A3.jpg,Stimuli/8B1.jpg,Stimuli/8B2.jpg,Stimuli/8B3.jpg,Stimuli/8C1.jpg,Stimuli/8C2.jpg,Stimuli/8C3.jpg,,,,,0,11,11,8,,,,,,,,1100.7055787000008,None,1101.7057585000002,None,1107.705801,None,"[-0.377, 0.138]","[0.066, -0.395]","[0.306, 0.255]","[-0.378, -0.136]","[0.304, -0.26]","[0.07, 0.393]","[-0.2, 0.346]","[-0.203, -0.347]","[0.399, -0.003]",,15.266120860000228,9.033037760000298,21.78321735999998,"[-0.2962962962962963, -0.37407407407407406, 0.4444444444444444]","[-0.06296296296296296, 0.18055555555555555, 0.012962962962962963]","[1, 1, 1]","[0, 0, 0]","[0, 0, 0]","[9.029237000000649, 15.262575900000229, 21.778992900000958]",0.003128459999061306,21.782036360000347,['A1'],['B1'],['C3'],['blue'],['salmon'],['yellow'],1134.7712536,None,5.0,6.796836299999995,1134.7712536,None,1153.8042624000009,None,10.0,2.7318101999990176,1143.5568576000005,None,4.0,12.16446360000009,1158.3038824000014,None,7.0,6.431833599999663,<function functionImportanceC at 0x0000024600A7D840>,<function functionImportanceA at 0x0000024600A7D6A8>,<function functionImportanceB at 0x0000024600A7D378>,,,1.0,4.697761600000376,7.0,2.7318101999990176,0.0,3.2309403999988717,<function functiondiffB at 0x0000024600A7DD08>,<function functiondiffA at 0x0000024600A7DC80>,<function functiondiffC at 0x0000024600A7DD90>,,,,,1112.5248377000007,1163.5207000999999,None,1171.5372820000011,None,1167.704049,None,18,001,2022_Jul_19_1241,2leo,2021.2.3,59.994948425291234,
3,23,Plan a city trip,Stimuli/23A1.jpg,Stimuli/23A2.jpg,Stimuli/23A3.jpg,Stimuli/23B1.jpg,Stimuli/23B2.jpg,Stimuli/23B3.jpg,Stimuli/23C1.jpg,Stimuli/23C2.jpg,Stimuli/23C3.jpg,,,,,0,12,12,23,,,,,,,,1174.4868181000002,None,1175.487060200001,None,1181.4869475000014,None,"[-0.377, 0.138]","[0.306, 0.255]","[0.066, -0.395]","[-0.378, -0.136]","[0.07, 0.393]","[0.304, -0.26]","[-0.2, 0.346]","[0.399, -0.003]","[-0.203, -0.347]",,18.07580973000222,12.792896830002064,6.760124730000825,"[0.3277777777777778, 0.08148148148148149, 0.3592592592592593]","[0.009259259259259259, 0.32037037037037036, 0.26944444444444443]","[1, 1, 1]","[0, 0, 0]","[0, 0, 0]","[6.744816299999002, 12.777910799999518, 18.061072200000126]",0.014201430001776316,18.075244530002237,['A2'],['B2'],['C2'],['salmon'],['blue'],['yellow'],1201.2360935000015,None,9.0,2.963855300000432,1201.2360935000015,None,1208.9027303000003,None,4.0,4.315211900000577,1204.3694615000004,None,10.0,4.630940600000031,1213.285985800001,None,7.0,5.131798700000218,<function functionImportanceC at 0x0000024600A7DA60>,<function functionImportanceA at 0x0000024600A7D598>,<function functionImportanceB at 0x0000024600A7D048>,,,9.0,4.881179500000144,0.0,4.315211900000577,7.0,5.497845699999743,<function functiondiffB at 0x00000246041967B8>,<function functiondiffC at 0x00000246003B40D0>,<function functiondiffA at 0x00000246041960D0>,,,,,1182.6901315000014,1218.3691921000009,None,1223.268855800001,None,1226.3023285,None,18,001,2022_Jul_19_1241,2leo,2021.2.3,59.994948425291234,
3,7,Plan your Sunday breakfast ,Stimuli/7A1.jpg,Stimuli/7A2.jpg,Stimuli/7A3.jpg,Stimuli/7B1.jpg,Stimuli/7B2.jpg,Stimuli/7B3.jpg,Stimuli/7C1.jpg,Stimuli/7C2.jpg,Stimuli/7C3.jpg,,,,,0,13,13,7,,,,,,,,1231.3186329,None,1232.3186581999998,None,1238.3187731000016,None,"[0.399, -0.003]","[-0.2, 0.346]","[-0.203, -0.347]","[0.306, 0.255]","[-0.377, 0.138]","[0.066, -0.395]","[0.07, 0.393]","[-0.378, -0.136]","[0.304, -0.26]",,3.953080660001433,20.986057560001427,8.420224260000396,"[-0.21851851851851853, -0.3175925925925926, 0.30925925925925923]","[0.4, -0.09907407407407408, 0.25833333333333336]","[1, 1, 1]","[0, 0, 0]","[0, 0, 0]","[3.9415228000016214, 8.408177300001626, 20.97434120000071]",0.011030960000425694,20.985310860000027,['A2'],['B1'],['C2'],['yellow'],['salmon'],['blue'],1265.7509076000006,None,8.0,5.647405199999412,1265.7509076000006,None,1291.333843100001,None,10.0,5.431711400000495,1272.6509443000014,None,2.0,11.831180799999856,1285.2337615000015,None,8.0,6.214966400000776,<function functionImportanceC at 0x0000024600A7DF28>,<function functionImportanceB at 0x00000246003B4400>,<function functionImportanceA at 0x00000246003B4B70>,,,6.0,8.680952299999262,10.0,5.431711400000495,-0.0,3.7646282999994582,<function functiondiffC at 0x0000024600A7D400>,<function functiondiffB at 0x0000024600A7D2F0>,<function functiondiffA at 0x0000024600A7D1E0>,,,,,1244.3121538000014,1300.3686184000017,None,1295.3337437999999,None,1308.9333554000004,None,18,001,2022_Jul_19_1241,2leo,2021.2.3,59.994948425291234,
3,20,Plan a tea party with your friends,Stimuli/20A1.jpg,Stimuli/20A2.jpg,Stimuli/20A3.jpg,Stimuli/20B1.jpg,Stimuli/20B2.jpg,Stimuli/20B3.jpg,Stimuli/20C1.jpg,Stimuli/20C2.jpg,Stimuli/20C3.jpg,,,,,0,14,14,20,,,,,,,,1311.6830802000004,None,1312.6832534000005,None,1318.6830217000006,None,"[-0.2, 0.346]","[0.399, -0.003]","[-0.203, -0.347]","[-0.378, -0.136]","[0.07, 0.393]","[0.304, -0.26]","[-0.377, 0.138]","[0.306, 0.255]","[0.066, -0.395]",,6.670982610001374,16.987658110001576,21.054590810001173,"[-0.20925925925925926, -0.3333333333333333, 0.05277777777777778]","[-0.3768518518518518, -0.14074074074074075, -0.4222222222222222]","[1, 1, 1]","[0, 0, 0]","[0, 0, 0]","[6.662291700000424, 16.97887559999981, 21.04541109999991]",0.008101110001007328,21.053290010000637,['A3'],['B1'],['C3'],['yellow'],['salmon'],['blue'],1343.9155555000016,None,5.0,3.5139197999997123,1343.9155555000016,None,1347.5653707000001,None,2.0,6.080869199999142,1359.331771700001,None,9.0,3.9316491999998107,1356.1151515000001,None,7.0,5.681645100001333,<function functionImportanceA at 0x0000024600A7DEA0>,<function functionImportanceB at 0x0000024600A7D7B8>,<function functionImportanceC at 0x0000024600A7D730>,,,8.0,6.764104800000496,-0.0,6.080869199999142,10.0,5.231085200000962,<function functiondiffB at 0x0000024600F55730>,<function functiondiffC at 0x0000024600F557B8>,<function functiondiffA at 0x0000024600A7D620>,,,,,1322.4009112000003,1363.764986100001,None,1369.9982251000001,None,1373.3814676000002,None,18,001,2022_Jul_19_1241,2leo,2021.2.3,59.994948425291234,
3,5,Plan a birthday party for your younger self when you turn eight,Stimuli/5A1.jpg,Stimuli/5A2.jpg,Stimuli/5A3.jpg,Stimuli/5B1.jpg,Stimuli/5B2.jpg,Stimuli/5B3.jpg,Stimuli/5C1.jpg,Stimuli/5C2.jpg,Stimuli/5C3.jpg,,,,,0,15,15,5,,,,,,,,1396.5975694000008,None,1397.5974986,None,1403.597351100001,None,"[0.304, -0.26]","[0.07, 0.393]","[-0.378, -0.136]","[0.066, -0.395]","[0.306, 0.255]","[-0.377, 0.138]","[-0.203, -0.347]","[0.399, -0.003]","[-0.2, 0.346]",,10.87854537000021,14.861200269999244,34.42770826999913,"[0.2796296296296296, 0.3314814814814815, -0.175]","[-0.23333333333333334, 0.22777777777777777, -0.3537037037037037]","[1, 1, 1]","[0, 0, 0]","[0, 0, 0]","[10.872302499999932, 14.854594099999304, 34.42087770000035]",0.005816469998535467,34.426332269998966,['A1'],['B2'],['C1'],['yellow'],['salmon'],['blue'],1444.3295736,None,1.0,5.030225499998778,1444.3295736,None,1462.4790356000012,None,10.0,9.048144799999136,1450.0461727000002,None,5.0,10.464053199999398,1470.5951902000015,None,7.0,6.664834400000473,<function functionImportanceC at 0x0000024600F55620>,<function functionImportanceA at 0x0000024600F55950>,<function functionImportanceB at 0x0000024600F55A60>,,,3.0,5.897598399998969,10.0,9.048144799999136,0.0,5.197746600000755,<function functiondiffA at 0x0000024600A7D8C8>,<function functiondiffB at 0x0000024600A7D0D0>,<function functiondiffC at 0x0000024600A7D950>,,,,,1409.445160700001,1481.1785146000002,None,1486.8784707000013,None,1476.3951915000016,None,18,001,2022_Jul_19_1241,2leo,2021.2.3,59.994948425291234,
3,0,Plan a barbecue,Stimuli/0A1.jpg,Stimuli/0A2.jpg,Stimuli/0A3.jpg,Stimuli/0B1.jpg,Stimuli/0B2.jpg,Stimuli/0B3.jpg,Stimuli/0C1.jpg,Stimuli/0C2.jpg,Stimuli/0C3.jpg,,,,,0,16,16,0,,,,,,,,1489.6614003000013,None,1490.6615464000006,None,1496.6614408000005,None,"[-0.377, 0.138]","[0.066, -0.395]","[0.306, 0.255]","[-0.378, -0.136]","[0.304, -0.26]","[0.07, 0.393]","[-0.2, 0.346]","[-0.203, -0.347]","[0.399, -0.003]",,19.577657109999564,29.427617409999584,13.378478509999695,"[-0.15462962962962962, 0.11481481481481481, -0.43703703703703706]","[-0.31666666666666665, -0.44074074074074077, -0.17777777777777778]","[1, 1, 1]","[0, 0, 0]","[0, 0, 0]","[13.36386870000024, 19.56353239999953, 29.413352400000804]",0.01359050999963074,29.426614910000353,['A2'],['B1'],['C2'],['yellow'],['blue'],['salmon'],1529.0769079000002,None,8.0,3.013330699999642,1529.0769079000002,None,1533.5936790000014,None,10.0,5.097971799999868,1537.2770443000009,None,8.0,5.131704500001433,1542.4601675000013,None,1.0,4.21503550000125,<function functionImportanceA at 0x0000024600F55AE8>,<function functionImportanceC at 0x0000024600F559D8>,<function functionImportanceB at 0x0000024600F55840>,,,8.0,6.198047400001087,0.0,5.097971799999868,1.0,4.314489599999433,<function functiondiffC at 0x0000024600A7D488>,<function functiondiffA at 0x00000246003B47B8>,<function functiondiffB at 0x0000024600F551E0>,,,,,1499.1945972000012,1555.4597691,None,1546.6268124000017,None,1551.5099212000005,None,18,001,2022_Jul_19_1241,2leo,2021.2.3,59.994948425291234,
3,13,Plan a romantic date this weekend,Stimuli/13A1.jpg,Stimuli/13A2.jpg,Stimuli/13A3.jpg,Stimuli/13B1.jpg,Stimuli/13B2.jpg,Stimuli/13B3.jpg,Stimuli/13C1.jpg,Stimuli/13C2.jpg,Stimuli/13C3.jpg,,,,,0,17,17,13,,,,,,,,1561.1760147000005,None,1562.1762316000004,None,1568.1760915000013,None,"[-0.203, -0.347]","[-0.2, 0.346]","[0.399, -0.003]","[0.066, -0.395]","[-0.377, 0.138]","[0.306, 0.255]","[0.304, -0.26]","[-0.378, -0.136]","[0.07, 0.393]",,12.557531939999535,21.107357839999167,8.474686739999015,"[-0.4, -0.25462962962962965, 0.2638888888888889]","[-0.16944444444444445, -0.38055555555555554, 0.22314814814814815]","[1, 1, 1]","[0, 0, 0]","[0, 0, 0]","[8.46868859999995, 12.552176699999109, 21.101552500000253]",0.004945740000039223,21.106438539998635,['A1'],['B3'],['C2'],['salmon'],['blue'],['yellow'],1590.9919148000008,None,9.0,4.647025500000382,1590.9919148000008,None,1599.7085584000015,None,6.0,6.948236899999756,1595.7087661000005,None,10.0,3.9312319999989995,1606.674985900001,None,2.0,4.4652564999996684,<function functionImportanceC at 0x0000024600A7DB70>,<function functionImportanceA at 0x0000024600F558C8>,<function functionImportanceB at 0x0000024600F55E18>,,,8.0,4.71420340000077,2.0,6.948236899999756,1.0,4.78101659999993,<function functiondiffA at 0x0000024600F55EA0>,<function functiondiffC at 0x0000024600A7D9D8>,<function functiondiffB at 0x0000024600F55B70>,,,,,1569.406207600001,1620.874655900001,None,1615.8581674000015,None,1611.074976400001,None,18,001,2022_Jul_19_1241,2leo,2021.2.3,59.994948425291234,
3,26,Plan how to wash one round of your laundry ,Stimuli/26A1.jpg,Stimuli/26A2.jpg,Stimuli/26A3.jpg,Stimuli/26B1.jpg,Stimuli/26B2.jpg,Stimuli/26B3.jpg,Stimuli/26C1.jpg,Stimuli/26C2.jpg,Stimuli/26C3.jpg,,,,,0,18,18,26,,,,,,,,1625.0909041000014,None,1626.0910502000006,None,1632.0910127000006,None,"[0.07, 0.393]","[-0.378, -0.136]","[0.304, -0.26]","[0.399, -0.003]","[-0.2, 0.346]","[-0.203, -0.347]","[0.306, 0.255]","[-0.377, 0.138]","[0.066, -0.395]",,33.31572538000182,18.54993638000269,25.817238680001537,"[-0.16296296296296298, 0.3148148148148148, 0.13425925925925927]","[-0.2777777777777778, 0.31666666666666665, 0.38425925925925924]","[1, 1, 1]","[0, 0, 0]","[0, 0, 0]","[18.548465300000316, 25.815734100000554, 33.31472140000005]",0.0005969800022285199,33.31511688000137,['A1'],['B3'],['C1'],['yellow'],['salmon'],['blue'],1667.0232593,None,8.0,3.6968187000002217,1667.0232593,None,1679.1396541000013,None,10.0,4.165272599999298,1670.7733212000003,None,10.0,3.8311945000004926,1674.6397654000011,None,3.0,4.498461699999098,<function functionImportanceC at 0x0000024601D361E0>,<function functionImportanceB at 0x0000024601D36598>,<function functionImportanceA at 0x0000024600F55378>,,,7.0,5.098224400000618,0.0,4.165272599999298,1.0,4.74703529999897,<function functiondiffA at 0x0000024600F55D90>,<function functiondiffC at 0x0000024601D36730>,<function functiondiffB at 0x0000024600F55F28>,,,,,1633.2239950000003,1691.1892063000014,None,1688.0724687000002,None,1683.3064034,None,18,001,2022_Jul_19_1241,2leo,2021.2.3,59.994948425291234,
3,40,Plan to see a sports event ,Stimuli/40A1.jpg,Stimuli/40A2.jpg,Stimuli/40A3.jpg,Stimuli/40B1.jpg,Stimuli/40B2.jpg,Stimuli/40B3.jpg,Stimuli/40C1.jpg,Stimuli/40C2.jpg,Stimuli/40C3.jpg,,,,,0,19,19,40,,,,,,,,1695.8057537000004,None,1696.806008900001,None,1702.8056437000014,None,"[-0.203, -0.347]","[-0.2, 0.346]","[0.399, -0.003]","[0.066, -0.395]","[-0.377, 0.138]","[0.306, 0.255]","[0.304, -0.26]","[-0.378, -0.136]","[0.07, 0.393]",,14.393941999998788,3.92782779999834,19.577705299998343,"[-0.41203703703703703, -0.2064814814814815, -0.3787037037037037]","[0.14907407407407408, -0.36944444444444446, -0.15092592592592594]","[1, 1, 1]","[0, 0, 0]","[0, 0, 0]","[3.919977400000789, 14.38653610000074, 19.56963910000013]",0.007006599998931051,19.576386299999285,['A1'],['B2'],['C2'],['salmon'],['blue'],['yellow'],1724.2049255000002,None,9.0,2.211754200001451,1724.2049255000002,None,1735.5715826000014,None,10.0,3.448597600001449,1730.9714237000007,None,3.0,4.564800899999682,1726.6049540000004,None,10.0,4.481163200000083,<function functionImportanceB at 0x0000024601D36510>,<function functionImportanceC at 0x0000024601D36840>,<function functionImportanceA at 0x0000024601D36E18>,,,-0.0,3.8312484999987646,8.0,3.448597600001449,3.0,4.247723899999983,<function functiondiffC at 0x0000024600F55158>,<function functiondiffB at 0x0000024600A7DBF8>,<function functiondiffA at 0x00000246003B4EA0>,,,,,1704.1353414000005,1744.4544738000004,None,1738.9879597,None,1748.2708077000007,None,18,001,2022_Jul_19_1241,2leo,2021.2.3,59.994948425291234,
3,42,Plan how to draw a painting ,Stimuli/42A1.jpg,Stimuli/42A2.jpg,Stimuli/42A3.jpg,Stimuli/42B1.jpg,Stimuli/42B2.jpg,Stimuli/42B3.jpg,Stimuli/42C1.jpg,Stimuli/42C2.jpg,Stimuli/42C3.jpg,,,,,0,20,20,42,,,,,,,,1752.0371571000014,None,1753.0374715000016,None,1759.0375542000002,None,"[0.07, 0.393]","[-0.378, -0.136]","[0.304, -0.26]","[0.306, 0.255]","[-0.377, 0.138]","[0.066, -0.395]","[0.399, -0.003]","[-0.2, 0.346]","[-0.203, -0.347]",,28.22046897999826,8.437942779999503,13.08792517999973,"[-0.31851851851851853, 0.3712962962962963, 0.10740740740740741]","[0.14444444444444443, -0.004629629629629629, 0.4148148148148148]","[1, 1, 1]","[0, 0, 0]","[0, 0, 0]","[8.433344700000816, 13.083196700001281, 28.216299900001104]",0.0037598799990519183,28.21978697999839,['A1'],['B2'],['C1'],['blue'],['salmon'],['yellow'],1789.0363836000015,None,3.0,3.4469098999998096,1789.0363836000015,None,1792.7031798000007,None,2.0,7.931035600000541,1803.3360801,None,8.0,3.815006099999664,1800.5029860000013,None,10.0,2.815180400000827,<function functionImportanceA at 0x0000024601D36C80>,<function functionImportanceB at 0x0000024601D36D08>,<function functionImportanceC at 0x0000024601D369D8>,,,1.0,4.51445540000168,1.0,7.931035600000541,9.0,2.347997700000633,<function functiondiffC at 0x0000024601D36400>,<function functiondiffB at 0x0000024601D362F0>,<function functiondiffA at 0x0000024601D36AE8>,,,,,1760.3362265000014,1810.8194264000012,None,1807.1361654000011,None,1815.3858367000012,None,18,001,2022_Jul_19_1241,2leo,2021.2.3,59.994948425291234,
3,34,Plan what car you want to buy,Stimuli/34A1.jpg,Stimuli/34A2.jpg,Stimuli/34A3.jpg,Stimuli/34B1.jpg,Stimuli/34B2.jpg,Stimuli/34B3.jpg,Stimuli/34C1.jpg,Stimuli/34C2.jpg,Stimuli/34C3.jpg,,,,,0,21,21,34,,,,,,,,1817.2186858000005,None,1818.219165800001,None,1824.2190619000012,None,"[0.306, 0.255]","[0.066, -0.395]","[-0.377, 0.138]","[0.399, -0.003]","[-0.203, -0.347]","[-0.2, 0.346]","[0.07, 0.393]","[0.304, -0.26]","[-0.378, -0.136]",,10.159078350001437,15.759117450001213,22.209508550000464,"[-0.003703703703703704, 0.37222222222222223, -0.29814814814814816]","[-0.35462962962962963, -0.05185185185185185, -0.15092592592592594]","[1, 1, 1]","[0, 0, 0]","[0, 0, 0]","[10.142892299998493, 15.742783899999267, 22.192743799998425]",0.01563834999979008,22.208356549999735,['A2'],['B1'],['C3'],['blue'],['yellow'],['salmon'],1849.9847867000008,None,9.0,2.846998099999837,1849.9847867000008,None,1860.9845833,None,9.0,4.498496099999102,1852.9014906000011,None,1.0,3.164793500000087,1857.0353156,None,10.0,3.8814011000013124,<function functionImportanceC at 0x0000024601D36B70>,<function functionImportanceB at 0x0000024601D36D90>,<function functionImportanceA at 0x0000024600F55048>,,,0.0,4.080835200000365,9.0,4.498496099999102,-0.0,3.547834099999818,<function functiondiffA at 0x0000024601D36048>,<function functiondiffB at 0x0000024601D36BF8>,<function functiondiffC at 0x0000024600F55510>,,,,,1827.3224314,1868.2683843000013,None,1872.1344259000016,None,1864.8023092000003,None,18,001,2022_Jul_19_1241,2leo,2021.2.3,59.994948425291234,
3,22,Plan a beach day with your friends,Stimuli/22A1.jpg,Stimuli/22A2.jpg,Stimuli/22A3.jpg,Stimuli/22B1.jpg,Stimuli/22B2.jpg,Stimuli/22B3.jpg,Stimuli/22C1.jpg,Stimuli/22C2.jpg,Stimuli/22C3.jpg,,,,,0,22,22,22,,,,,,,,1874.2337320000006,None,1875.2341624,None,1881.234037100001,None,"[-0.2, 0.346]","[0.399, -0.003]","[-0.203, -0.347]","[-0.377, 0.138]","[0.306, 0.255]","[0.066, -0.395]","[-0.378, -0.136]","[0.07, 0.393]","[0.304, -0.26]",,10.91832801000055,20.168547810000746,5.7871573100001115,"[0.08981481481481482, -0.2175925925925926, 0.33240740740740743]","[0.4074074074074074, 0.4046296296296296, 0.2111111111111111]","[1, 1, 1]","[0, 0, 0]","[0, 0, 0]","[5.775962400000935, 10.907703700000638, 20.157531500000914]",0.010185310000451864,20.167631910000637,['A1'],['B2'],['C2'],['blue'],['salmon'],['yellow'],1903.0498865000009,None,4.0,2.997016999999687,1903.0498865000009,None,1906.1500182,None,10.0,4.864691600001606,1915.4498936,None,9.0,4.4314180000001215,1911.016510200001,None,7.0,4.41497949999939,<function functionImportanceA at 0x0000024601D36268>,<function functionImportanceB at 0x000002460227B158>,<function functionImportanceC at 0x000002460227B6A8>,,,10.0,4.781177200000457,0.0,4.864691600001606,0.0,4.397736200000509,<function functiondiffC at 0x000002460227B2F0>,<function functiondiffA at 0x0000024601D36F28>,<function functiondiffB at 0x0000024601D366A8>,,,,,1882.406858100001,1928.0994066000003,None,1919.8494354000013,None,1923.6826824,None,18,001,2022_Jul_19_1241,2leo,2021.2.3,59.994948425291234,
3,12,Plan the ingredients to mix yourself a cocktail,Stimuli/12A1.jpg,Stimuli/12A2.jpg,Stimuli/12A3.jpg,Stimuli/12B1.jpg,Stimuli/12B2.jpg,Stimuli/12B3.jpg,Stimuli/12C1.jpg,Stimuli/12C2.jpg,Stimuli/12C3.jpg,,,,,0,23,23,12,,,,,,,,1932.3988436,None,1933.3993521000011,None,1939.399132300001,None,"[0.066, -0.395]","[-0.377, 0.138]","[0.306, 0.255]","[-0.203, -0.347]","[-0.2, 0.346]","[0.399, -0.003]","[0.304, -0.26]","[-0.378, -0.136]","[0.07, 0.393]",,17.23986049999985,23.923382599999968,10.140868699998464,"[0.05092592592592592, 0.07962962962962963, -0.14444444444444443]","[0.4527777777777778, -0.3148148148148148, 0.31666666666666665]","[1, 1, 1]","[0, 0, 0]","[0, 0, 0]","[10.127143700001398, 17.226834100001724, 23.909980900001756]",0.012612099999387283,23.92247249999855,['A1'],['B2'],['C3'],['yellow'],['blue'],['salmon'],1964.9480211999999,None,7.0,3.7306817999997293,1964.9480211999999,None,1980.131291400001,None,10.0,4.748244099999283,1984.8813825000016,None,2.0,3.6321740000003047,1968.7480388000004,None,8.0,11.347402900000816,<function functionImportanceB at 0x000002460227B8C8>,<function functionImportanceA at 0x000002460227B9D8>,<function functionImportanceC at 0x000002460227B7B8>,,,1.0,3.4648746999992,8.0,4.748244099999283,6.0,5.381050300000425,<function functiondiffA at 0x0000024601D36158>,<function functiondiffC at 0x000002460227B488>,<function functiondiffB at 0x0000024601D36378>,,,,,1940.5525652000015,1998.4807744000009,None,1993.8975410000003,None,1988.4978570000003,None,18,001,2022_Jul_19_1241,2leo,2021.2.3,59.994948425291234,
3,39,Plan what kind of watch you want to buy,Stimuli/39A1.jpg,Stimuli/39A2.jpg,Stimuli/39A3.jpg,Stimuli/39B1.jpg,Stimuli/39B2.jpg,Stimuli/39B3.jpg,Stimuli/39C1.jpg,Stimuli/39C2.jpg,Stimuli/39C3.jpg,,,,,0,24,24,39,,,,,,,,2001.4635501000012,None,2002.4640640000016,None,2008.4639451000003,None,"[-0.2, 0.346]","[-0.203, -0.347]","[0.399, -0.003]","[-0.377, 0.138]","[0.066, -0.395]","[0.306, 0.255]","[-0.378, -0.136]","[0.304, -0.26]","[0.07, 0.393]",,25.650090109998928,19.250448609998784,10.334277109999675,"[-0.37962962962962965, 0.06851851851851852, -0.14166666666666666]","[-0.1111111111111111, -0.37222222222222223, -0.37222222222222223]","[1, 1, 1]","[0, 0, 0]","[0, 0, 0]","[10.323847399999067, 19.240148599999884, 25.64008990000002]",0.009486109998761094,25.649383009998928,['A2'],['B2'],['C1'],['yellow'],['blue'],['salmon'],2035.7629731000015,None,4.0,3.3637125000004744,2035.7629731000015,None,2051.046062700001,None,1.0,4.4481646999993245,2039.2462892000003,None,8.0,5.8478990999992675,2045.0461885000004,None,9.0,5.965047699999559,<function functionImportanceC at 0x000002460227BD08>,<function functionImportanceB at 0x000002460227BB70>,<function functionImportanceA at 0x000002460227BBF8>,,,9.0,5.7978399000003265,1.0,4.4481646999993245,9.0,3.0143637000001036,<function functiondiffC at 0x0000024601D36620>,<function functiondiffA at 0x000002460227B510>,<function functiondiffB at 0x000002460227B598>,,,,,2009.6383172000005,2064.7623358,None,2055.4792067,None,2061.729110800001,None,18,001,2022_Jul_19_1241,2leo,2021.2.3,59.994948425291234,
3,31,Plan your order at a restaurant    ,Stimuli/31A1.jpg,Stimuli/31A2.jpg,Stimuli/31A3.jpg,Stimuli/31B1.jpg,Stimuli/31B2.jpg,Stimuli/31B3.jpg,Stimuli/31C1.jpg,Stimuli/31C2.jpg,Stimuli/31C3.jpg,,,,,0,25,25,31,,,,,,,,2070.0782941000016,None,2071.0787065000004,None,2077.0787235000007,None,"[0.306, 0.255]","[-0.377, 0.138]","[0.066, -0.395]","[0.399, -0.003]","[-0.2, 0.346]","[-0.203, -0.347]","[0.07, 0.393]","[-0.378, -0.136]","[0.304, -0.26]",,6.846424049999769,14.496855549999964,24.046650950000185,"[0.31666666666666665, -0.13796296296296295, 0.26851851851851855]","[0.275, -0.3925925925925926, -0.32685185185185184]","[1, 1, 1]","[0, 0, 0]","[0, 0, 0]","[6.8310634999998, 14.481058099998336, 24.030616799998825]",0.0149510499995813,24.045383549999315,['A1'],['B3'],['C3'],['blue'],['salmon'],['yellow'],2104.1775270000016,None,7.0,3.230287100001078,2104.1775270000016,None,2118.0469134000014,None,10.0,4.831939000001512,2111.9776777000006,None,1.0,4.681835099998352,2107.4777672,None,10.0,4.4475287000004755,<function functionImportanceB at 0x000002460227B840>,<function functionImportanceC at 0x000002460227BA60>,<function functionImportanceA at 0x000002460227B268>,,,1.0,4.781158699999651,9.0,4.831939000001512,-0.0,2.8980014999997366,<function functiondiffB at 0x000002460227BEA0>,<function functiondiffC at 0x000002460227BE18>,<function functiondiffA at 0x000002460227BAE8>,,,,,2079.6794902,2121.46069,None,2126.2603667000003,None,2129.49373,None,18,001,2022_Jul_19_1241,2leo,2021.2.3,59.994948425291234,
3,33,Plan the items to decorate your Christmas tree,Stimuli/33A1.jpg,Stimuli/33A2.jpg,Stimuli/33A3.jpg,Stimuli/33B1.jpg,Stimuli/33B2.jpg,Stimuli/33B3.jpg,Stimuli/33C1.jpg,Stimuli/33C2.jpg,Stimuli/33C3.jpg,,,,,0,26,26,33,,,,,,,,2131.5765899000016,None,2132.577137600001,None,2138.5769941,None,"[-0.378, -0.136]","[0.304, -0.26]","[0.07, 0.393]","[-0.377, 0.138]","[0.066, -0.395]","[0.306, 0.255]","[-0.2, 0.346]","[-0.203, -0.347]","[0.399, -0.003]",,5.463407320001352,11.49714762000076,14.8638565199999,"[-0.36666666666666664, -0.36203703703703705, -0.18333333333333332]","[-0.1175925925925926, 0.18796296296296297, -0.4]","[1, 1, 1]","[0, 0, 0]","[0, 0, 0]","[5.4526101000010385, 11.48609899999974, 14.852446999999302]",0.010367220000262023,14.862757120001334,['A1'],['B1'],['C2'],['yellow'],['salmon'],['blue'],2155.609623800001,None,9.0,3.2303708999988885,2155.609623800001,None,2168.1427358,None,10.0,5.03156239999953,2164.1760557000016,None,8.0,3.398421399999279,2158.892974100001,None,3.0,5.231359800000064,<function functionImportanceB at 0x0000024600F556A8>,<function functionImportanceC at 0x0000024601D368C8>,<function functionImportanceA at 0x000002460227B378>,,,9.0,5.897720099999788,1.0,5.03156239999953,-0.0,5.564540700001089,<function functiondiffB at 0x000002460227B730>,<function functiondiffC at 0x000002460227BD90>,<function functiondiffA at 0x000002460227BF28>,,,,,2140.2850473,2172.592686,None,2178.509160200001,None,2182.3258401000003,None,18,001,2022_Jul_19_1241,2leo,2021.2.3,59.994948425291234,
3,18,Plan your Saturday night ,Stimuli/18A1.jpg,Stimuli/18A2.jpg,Stimuli/18A3.jpg,Stimuli/18B1.jpg,Stimuli/18B2.jpg,Stimuli/18B3.jpg,Stimuli/18C1.jpg,Stimuli/18C2.jpg,Stimuli/18C3.jpg,,,,,0,27,27,18,,,,,,,,2187.2750392000016,None,2188.2754424000013,None,2194.275303800001,None,"[-0.378, -0.136]","[0.07, 0.393]","[0.304, -0.26]","[-0.377, 0.138]","[0.306, 0.255]","[0.066, -0.395]","[-0.2, 0.346]","[0.399, -0.003]","[-0.203, -0.347]",,8.670099380002284,3.970330380001542,13.086969680001857,"[-0.40555555555555556, 0.1175925925925926, -0.18518518518518517]","[0.13703703703703704, 0.38333333333333336, 0.2935185185185185]","[1, 1, 1]","[0, 0, 0]","[0, 0, 0]","[3.9589724999987084, 8.658991099999184, 13.075392900000224]",0.01060388000223611,13.085970980002458,['A2'],['B1'],['C1'],['yellow'],['blue'],['salmon'],2208.9580369000014,None,10.0,2.863595200000418,2208.9580369000014,None,2211.8914793000004,None,9.0,5.29776370000036,2221.1412821000013,None,1.0,5.3315473000002385,2217.1746377,None,2.0,3.915158600000723,<function functionImportanceA at 0x000002460227B400>,<function functionImportanceB at 0x0000024601D36EA0>,<function functionImportanceC at 0x0000024601D367B8>,,,-0.0,3.0482306000012613,8.0,5.29776370000036,1.0,6.29777809999905,<function functiondiffC at 0x0000024600A7D158>,<function functiondiffB at 0x000002460227B048>,<function functiondiffA at 0x0000024601D36A60>,,,,,2195.397065500001,2233.2074778000006,None,2226.457744700001,None,2236.2908532,None,18,001,2022_Jul_19_1241,2leo,2021.2.3,59.994948425291234,
3,14,Plan your own Pizza for dinner,Stimuli/14A1.jpg,Stimuli/14A2.jpg,Stimuli/14A3.jpg,Stimuli/14B1.jpg,Stimuli/14B2.jpg,Stimuli/14B3.jpg,Stimuli/14C1.jpg,Stimuli/14C2.jpg,Stimuli/14C3.jpg,,,,,0,28,28,14,,,,,,,,2242.1069977000006,None,2243.107208700001,None,2249.1070887000005,None,"[0.304, -0.26]","[-0.378, -0.136]","[0.07, 0.393]","[0.066, -0.395]","[-0.377, 0.138]","[0.306, 0.255]","[-0.203, -0.347]","[-0.2, 0.346]","[0.399, -0.003]",,8.5606838099975,24.16041600999779,22.394003209998118,"[-0.3638888888888889, -0.15833333333333333, 0.25]","[-0.14166666666666666, -0.32037037037037036, 0.21851851851851853]","[1, 1, 1]","[0, 0, 0]","[0, 0, 0]","[8.55391360000067, 22.386824100000013, 24.15332689999923]",0.006172709998281789,24.15924920999896,['A2'],['B3'],['C1'],['salmon'],['yellow'],['blue'],2274.9229558000006,None,8.0,4.279697699999815,2274.9229558000006,None,2284.889566400001,None,4.0,4.498339399999168,2289.372566,None,3.0,3.7652719000016077,2279.3060372,None,10.0,5.597581400001218,<function functionImportanceB at 0x000002460282C6A8>,<function functionImportanceA at 0x0000024601D36950>,<function functionImportanceC at 0x000002460282C598>,,,1.0,4.964714799998546,9.0,4.498339399999168,3.0,6.147864399999889,<function functiondiffC at 0x000002460282C840>,<function functiondiffB at 0x000002460227B950>,<function functiondiffA at 0x0000024601D360D0>,,,,,2250.2834334,2296.989086200001,None,2293.155769500001,None,2301.955697700001,None,18,001,2022_Jul_19_1241,2leo,2021.2.3,59.994948425291234,
3,35,Plan how you want to do your grocery shopping ,Stimuli/35A1.jpg,Stimuli/35A2.jpg,Stimuli/35A3.jpg,Stimuli/35B1.jpg,Stimuli/35B2.jpg,Stimuli/35B3.jpg,Stimuli/35C1.jpg,Stimuli/35C2.jpg,Stimuli/35C3.jpg,,,,,0,29,29,35,,,,,,,,2307.6216940000013,None,2308.6220323000016,None,2314.622121300001,None,"[-0.203, -0.347]","[-0.2, 0.346]","[0.399, -0.003]","[0.066, -0.395]","[-0.377, 0.138]","[0.306, 0.255]","[0.304, -0.26]","[-0.378, -0.136]","[0.07, 0.393]",,27.14919354000085,17.21650024000155,6.917170340000666,"[-0.3175925925925926, 0.017592592592592594, -0.14537037037037037]","[-0.11388888888888889, -0.3731481481481482, -0.39814814814814814]","[1, 1, 1]","[0, 0, 0]","[0, 0, 0]","[6.914978599999813, 17.214667300000656, 27.14763519999906]",0.0011562400013644947,27.148645140001463,['A1'],['B1'],['C2'],['salmon'],['blue'],['yellow'],2343.487617300001,None,9.0,2.5966635000004317,2343.487617300001,None,2351.354037000001,None,5.0,6.114920100000745,2357.4541637,None,10.0,3.8150846999997157,2346.2210625000007,None,10.0,5.164224300002388,<function functionImportanceB at 0x000002460282C9D8>,<function functionImportanceA at 0x000002460282C158>,<function functionImportanceC at 0x000002460282C7B8>,,,-0.0,4.814203399997496,1.0,6.114920100000745,9.0,2.747927800002799,<function functiondiffB at 0x000002460282CA60>,<function functiondiffC at 0x000002460227B1E0>,<function functiondiffA at 0x000002460282CD90>,,,,,2315.8555436000006,2361.2874744,None,2366.1038611000004,None,2369.920533100001,None,18,001,2022_Jul_19_1241,2leo,2021.2.3,59.994948425291234,
3,32,Plan how you want to relax after a workday,Stimuli/32A1.jpg,Stimuli/32A2.jpg,Stimuli/32A3.jpg,Stimuli/32B1.jpg,Stimuli/32B2.jpg,Stimuli/32B3.jpg,Stimuli/32C1.jpg,Stimuli/32C2.jpg,Stimuli/32C3.jpg,,,,,0,30,30,32,,,,,,,,2390.0199374000003,None,2391.0199857000007,None,2397.019718899999,None,"[0.07, 0.393]","[-0.378, -0.136]","[0.304, -0.26]","[0.399, -0.003]","[-0.2, 0.346]","[-0.203, -0.347]","[0.306, 0.255]","[-0.377, 0.138]","[0.066, -0.395]",,12.350884690000385,16.399632090000523,22.433325689999037,"[0.10925925925925926, 0.4722222222222222, -0.33611111111111114]","[0.3111111111111111, 0.04814814814814815, 0.08333333333333333]","[1, 1, 1]","[0, 0, 0]","[0, 0, 0]","[12.348396099998354, 16.396830699999555, 22.43024130000049]",0.0020740899999509566,22.432085789998382,['A1'],['B1'],['C2'],['blue'],['salmon'],['yellow'],2422.9353967000025,None,2.0,2.913706200000888,2422.9353967000025,None,2427.0022728000004,None,1.0,7.19790009999997,2437.185295700001,None,4.0,4.365039000000252,2433.9187010999995,None,10.0,4.047888600001897,<function functionImportanceA at 0x000002460282C950>,<function functionImportanceB at 0x000002460282CD08>,<function functionImportanceC at 0x000002460282CBF8>,,,1.0,5.447805399999197,9.0,7.19790009999997,9.0,2.8985561999979836,<function functiondiffB at 0x000002460282C0D0>,<function functiondiffA at 0x000002460282CAE8>,<function functiondiffC at 0x000002460282C510>,,,,,2400.0369799,2441.7183781999993,None,2449.934931,None,2447.351743200001,None,18,001,2022_Jul_19_1241,2leo,2021.2.3,59.994948425291234,
3,3,Plan a movie night with a friend,Stimuli/3A1.jpg,Stimuli/3A2.jpg,Stimuli/3A3.jpg,Stimuli/3B1.jpg,Stimuli/3B2.jpg,Stimuli/3B3.jpg,Stimuli/3C1.jpg,Stimuli/3C2.jpg,Stimuli/3C3.jpg,,,,,0,31,31,3,,,,,,,,2452.667717100001,None,2453.6682120000005,None,2459.6680589000025,None,"[0.304, -0.26]","[-0.378, -0.136]","[0.07, 0.393]","[0.066, -0.395]","[-0.377, 0.138]","[0.306, 0.255]","[-0.203, -0.347]","[-0.2, 0.346]","[0.399, -0.003]",,15.913699139997334,7.364280539997708,38.71364403999905,"[0.24259259259259258, 0.30833333333333335, 0.36203703703703705]","[0.2722222222222222, -0.19722222222222222, 0.026851851851851852]","[1, 1, 1]","[0, 0, 0]","[0, 0, 0]","[7.351178400000208, 15.901036499999464, 38.700210799997876]",0.012230439999257214,38.712401339998905,['A1'],['B3'],['C3'],['salmon'],['yellow'],['blue'],2502.433139200002,None,3.0,4.363246400000207,2502.433139200002,None,2506.8998111,None,10.0,3.347770700002002,2511.9331679999996,None,2.0,4.3480743000000075,2515.3164168000003,None,7.0,4.614963200001512,<function functionImportanceA at 0x000002460282CC80>,<function functionImportanceC at 0x0000024602DEA6A8>,<function functionImportanceB at 0x0000024600F55C80>,,,4.0,5.931136900002457,9.0,3.347770700002002,1.0,4.981045500000619,<function functiondiffA at 0x000002460282C620>,<function functiondiffC at 0x000002460282CB70>,<function functiondiffB at 0x000002460282CE18>,,,,,2463.265779600002,2528.182799500002,None,2524.5494266000023,None,2519.1997016999994,None,18,001,2022_Jul_19_1241,2leo,2021.2.3,59.994948425291234,
3,2,Plan which ingredients you want to use for cooking dinner today,Stimuli/2A1.jpg,Stimuli/2A2.jpg,Stimuli/2A3.jpg,Stimuli/2B1.jpg,Stimuli/2B2.jpg,Stimuli/2B3.jpg,Stimuli/2C1.jpg,Stimuli/2C2.jpg,Stimuli/2C3.jpg,,,,,0,32,32,2,,,,,,,,2533.2656572000014,None,2534.2658658,None,2540.265809100001,None,"[0.306, 0.255]","[0.066, -0.395]","[-0.377, 0.138]","[0.07, 0.393]","[0.304, -0.26]","[-0.378, -0.136]","[0.399, -0.003]","[-0.203, -0.347]","[-0.2, 0.346]",,26.55838076999862,9.025843870000244,31.61018047000107,"[-0.41944444444444445, 0.1259259259259259, -0.19444444444444445]","[-0.09537037037037037, -0.36203703703703705, 0.362962962962963]","[1, 1, 1]","[0, 0, 0]","[0, 0, 0]","[9.010037399999419, 26.542985000000044, 31.594192299999122]",0.014862470001389738,31.60751276999872,['A2'],['B3'],['C3'],['blue'],['salmon'],['yellow'],2578.5146704,None,9.0,2.578547000000981,2578.5146704,None,2582.2311593000013,None,8.0,5.497710700001335,2587.347407600002,None,9.0,7.731607800000347,2597.780627700002,None,2.0,8.165168099996663,<function functionImportanceA at 0x0000024600F55D08>,<function functionImportanceC at 0x0000024602DEA158>,<function functionImportanceB at 0x0000024602DEA048>,,,2.0,4.164373600000545,8.0,5.497710700001335,10.0,3.814443699997355,<function functiondiffC at 0x000002460282CF28>,<function functiondiffB at 0x000002460282C268>,<function functiondiffA at 0x000002460282C378>,,,,,2546.4402069000025,2610.713758400001,None,2602.730615100001,None,2614.3968404000007,None,18,001,2022_Jul_19_1241,2leo,2021.2.3,59.994948425291234,
3,38,Plan how you want to go for a run,Stimuli/38A1.jpg,Stimuli/38A2.jpg,Stimuli/38A3.jpg,Stimuli/38B1.jpg,Stimuli/38B2.jpg,Stimuli/38B3.jpg,Stimuli/38C1.jpg,Stimuli/38C2.jpg,Stimuli/38C3.jpg,,,,,0,33,33,38,,,,,,,,2617.429929599999,None,2618.4301768000005,None,2624.4301564000016,None,"[0.066, -0.395]","[-0.377, 0.138]","[0.306, 0.255]","[-0.203, -0.347]","[-0.2, 0.346]","[0.399, -0.003]","[0.304, -0.26]","[-0.378, -0.136]","[0.07, 0.393]",,16.732794969997485,21.39953886999865,9.167353169996204,"[0.05, -0.42592592592592593, -0.2]","[0.3675925925925926, 0.18796296296296297, -0.37222222222222223]","[1, 1, 1]","[0, 0, 0]","[0, 0, 0]","[9.156732499999634, 16.722742599999037, 21.389318900000944]",0.009535369998047827,21.398633869997866,['A2'],['B1'],['C3'],['blue'],['salmon'],['yellow'],2647.5792796000023,None,10.0,2.514578400001483,2647.5792796000023,None,2653.845928900002,None,10.0,3.1149373999978707,2650.262628799999,None,9.0,3.6310168000018166,2657.012475899999,None,3.0,3.6151009000022896,<function functionImportanceC at 0x0000024602DEA730>,<function functionImportanceA at 0x0000024602DEAF28>,<function functionImportanceB at 0x0000024602DEAEA0>,,,1.0,2.2148095999982615,1.0,3.1149373999978707,8.0,3.9973198999978194,<function functiondiffC at 0x000002460282C2F0>,<function functiondiffA at 0x000002460282C1E0>,<function functiondiffB at 0x000002460282C048>,,,,,2625.706414700002,2668.8119952000015,None,2660.5623471,None,2664.7788868000025,None,18,001,2022_Jul_19_1241,2leo,2021.2.3,59.994948425291234,
3,10,Plan a restaurant visit with your family on the weekend ,Stimuli/10A1.jpg,Stimuli/10A2.jpg,Stimuli/10A3.jpg,Stimuli/10B1.jpg,Stimuli/10B2.jpg,Stimuli/10B3.jpg,Stimuli/10C1.jpg,Stimuli/10C2.jpg,Stimuli/10C3.jpg,,,,,0,34,34,10,,,,,,,,2670.545868600002,None,2671.545291300001,None,2677.545234199999,None,"[-0.377, 0.138]","[0.066, -0.395]","[0.306, 0.255]","[-0.2, 0.346]","[-0.203, -0.347]","[0.399, -0.003]","[-0.378, -0.136]","[0.304, -0.26]","[0.07, 0.393]",,38.67896447000021,21.496735470002022,4.3639106699993135,"[-0.4074074074074074, 0.4203703703703704, 0.026851851851851852]","[-0.09814814814814815, 0.001851851851851852, -0.3990740740740741]","[1, 1, 1]","[0, 0, 0]","[0, 0, 0]","[4.357334199998149, 21.490242500000022, 38.6728065999996]",0.005632770000374876,38.67835837000166,['A2'],['B3'],['C1'],['yellow'],['salmon'],['blue'],2720.6771909000017,None,6.0,5.463769999998476,2720.6771909000017,None,2733.5270439000014,None,3.0,17.815022800001316,2726.193858400002,None,2.0,7.197799599998689,2753.960577500002,None,10.0,6.198394899998675,<function functionImportanceC at 0x0000024602DEA598>,<function functionImportanceA at 0x0000024602DEAD08>,<function functionImportanceB at 0x0000024602DEAE18>,,,-0.0,4.131125600000814,1.0,17.815022800001316,9.0,4.530960700001742,<function functiondiffA at 0x0000024602DEABF8>,<function functiondiffB at 0x0000024602DEA2F0>,<function functiondiffC at 0x0000024602DEAB70>,,,,,2681.5360058000006,2762.7595299999994,None,2766.1426180000017,None,2757.4596273999996,None,18,001,2022_Jul_19_1241,2leo,2021.2.3,59.994948425291234,
3,28,Plan a one-week camping trip in Spain,Stimuli/28A1.jpg,Stimuli/28A2.jpg,Stimuli/28A3.jpg,Stimuli/28B1.jpg,Stimuli/28B2.jpg,Stimuli/28B3.jpg,Stimuli/28C1.jpg,Stimuli/28C2.jpg,Stimuli/28C3.jpg,,,,,0,35,35,28,,,,,,,,2768.7431689000005,None,2769.7425771000017,None,2775.7425532000016,None,"[0.07, 0.393]","[0.304, -0.26]","[-0.378, -0.136]","[0.306, 0.255]","[0.066, -0.395]","[-0.377, 0.138]","[0.399, -0.003]","[-0.203, -0.347]","[-0.2, 0.346]",,18.52216000000044,10.97311020000052,25.05592550000074,"[0.037037037037037035, 0.2388888888888889, -0.27314814814814814]","[-0.3638888888888889, -0.30648148148148147, -0.28888888888888886]","[1, 1, 1]","[0, 0, 0]","[0, 0, 0]","[10.968755800000508, 18.518047099998512, 25.051289499999257]",0.003591900000174064,25.054416400002083,['A2'],['B2'],['C2'],['blue'],['yellow'],['salmon'],2802.4418382000003,None,2.0,3.829930100000638,2802.4418382000003,None,2811.3912998000014,None,9.0,3.1986052000029304,2806.324767099999,None,3.0,5.0307740999996895,2814.674802900001,None,9.0,2.898868099997344,<function functionImportanceC at 0x000002460319F510>,<function functionImportanceA at 0x0000024602DEAD90>,<function functionImportanceB at 0x0000024600F55400>,,,3.0,2.7645469999988563,9.0,3.1986052000029304,8.0,9.731002599997737,<function functiondiffC at 0x0000024602DEA378>,<function functiondiffB at 0x0000024600F55598>,<function functiondiffA at 0x000002460282C730>,,,,,2776.904381799999,2821.4910906000005,None,2817.474762500002,None,2824.2745614000014,None,18,001,2022_Jul_19_1241,2leo,2021.2.3,59.994948425291234,
3,15,Plan your own Pasta for lunch,Stimuli/15A1.jpg,Stimuli/15A2.jpg,Stimuli/15A3.jpg,Stimuli/15B1.jpg,Stimuli/15B2.jpg,Stimuli/15B3.jpg,Stimuli/15C1.jpg,Stimuli/15C2.jpg,Stimuli/15C3.jpg,,,,,0,36,36,15,,,,,,,,2833.5249681000023,None,2834.5241554999993,None,2840.5240489000025,None,"[0.07, 0.393]","[-0.378, -0.136]","[0.304, -0.26]","[0.399, -0.003]","[-0.2, 0.346]","[-0.203, -0.347]","[0.306, 0.255]","[-0.377, 0.138]","[0.066, -0.395]",,3.8104621399979806,13.9776564399981,9.227765339997859,"[0.05092592592592592, -0.375, -0.24537037037037038]","[0.46296296296296297, 0.1638888888888889, 0.30462962962962964]","[1, 1, 1]","[0, 0, 0]","[0, 0, 0]","[3.808410699999513, 9.225088199997117, 13.975264799999422]",0.0016294399974867702,13.976400939995074,['A1'],['B2'],['C2'],['salmon'],['blue'],['yellow'],2856.890096700001,None,10.0,1.9797925000020768,2856.890096700001,None,2863.423326,None,9.0,3.6317081000015605,2867.6897444000024,None,10.0,5.664776300000085,2858.9235579000015,None,1.0,4.397835499999928,<function functionImportanceB at 0x000002460319F730>,<function functionImportanceA at 0x0000024602DEAC80>,<function functionImportanceC at 0x000002460319F1E0>,,,9.0,3.1149224000000686,1.0,3.6317081000015605,1.0,2.8648353000025963,<function functiondiffC at 0x000002460319F598>,<function functiondiffB at 0x000002460319F158>,<function functiondiffA at 0x0000024602DEA510>,,,,,2842.4470359000006,2876.322930800001,None,2872.789570000001,None,2879.4563469000022,None,18,001,2022_Jul_19_1241,2leo,2021.2.3,59.994948425291234,
3,29,Plan a day in the mountains ,Stimuli/29A1.jpg,Stimuli/29A2.jpg,Stimuli/29A3.jpg,Stimuli/29B1.jpg,Stimuli/29B2.jpg,Stimuli/29B3.jpg,Stimuli/29C1.jpg,Stimuli/29C2.jpg,Stimuli/29C3.jpg,,,,,0,37,37,29,,,,,,,,2881.8401349000014,None,2882.839648500001,None,2888.8393195999997,None,"[0.07, 0.393]","[-0.378, -0.136]","[0.304, -0.26]","[0.399, -0.003]","[-0.2, 0.346]","[-0.203, -0.347]","[0.306, 0.255]","[-0.377, 0.138]","[0.066, -0.395]",,12.78885592000006,18.35566481999922,9.856007419999514,"[0.1111111111111111, 0.362962962962963, 0.37037037037037035]","[-0.3685185185185185, -0.21666666666666667, -0.09259259259259259]","[1, 1, 1]","[0, 0, 0]","[0, 0, 0]","[9.850962199998321, 12.784345299998677, 18.351079899999604]",0.0038985200008028187,18.354686620001303,['A3'],['B1'],['C3'],['blue'],['salmon'],['yellow'],2908.8720231000007,None,3.0,3.8632316999974137,2908.8720231000007,None,2919.1051688000007,None,10.0,2.5484079999987443,2912.8236846,None,9.0,6.231078100001469,2921.605069199999,None,1.0,3.4152972000010777,<function functionImportanceC at 0x000002460319FBF8>,<function functionImportanceA at 0x000002460319F9D8>,<function functionImportanceB at 0x000002460319F268>,,,9.0,3.7977862000007008,1.0,2.5484079999987443,-0.0,2.2978216000010434,<function functiondiffC at 0x000002460319FD90>,<function functiondiffB at 0x000002460319FD08>,<function functiondiffA at 0x000002460319FC80>,,,,,2890.036642700001,2929.4714561,None,2925.0049185000025,None,2933.3047571999996,None,18,001,2022_Jul_19_1241,2leo,2021.2.3,59.994948425291234,
3,6,Plan your wedding,Stimuli/6A1.jpg,Stimuli/6A2.jpg,Stimuli/6A3.jpg,Stimuli/6B1.jpg,Stimuli/6B2.jpg,Stimuli/6B3.jpg,Stimuli/6C1.jpg,Stimuli/6C2.jpg,Stimuli/6C3.jpg,,,,,0,38,38,6,,,,,,,,2935.1062273000025,None,2936.1211060999995,None,2942.1212803000017,None,"[0.304, -0.26]","[0.07, 0.393]","[-0.378, -0.136]","[-0.203, -0.347]","[0.399, -0.003]","[-0.2, 0.346]","[0.066, -0.395]","[0.306, 0.255]","[-0.377, 0.138]",,17.377660130005097,9.311631130003661,28.144685430004756,"[-0.20277777777777778, -0.012962962962962963, 0.32037037037037036]","[-0.2824074074074074, 0.3962962962962963, 0.21481481481481482]","[1, 1, 1]","[0, 0, 0]","[0, 0, 0]","[9.300382400000672, 17.36669840000104, 28.13324400000056]",0.010440030004247092,28.14345723000224,['A2'],['B1'],['C2'],['yellow'],['blue'],['salmon'],2975.819985099999,None,8.0,4.73021879999942,2975.819985099999,None,2996.236067400001,None,10.0,4.181501999999455,2991.5697738000017,None,6.0,4.681444300000294,2982.2200871000023,None,6.0,9.747470099999191,<function functionImportanceB at 0x000002460319FEA0>,<function functionImportanceC at 0x000002460319F048>,<function functionImportanceA at 0x000002460319FAE8>,,,8.0,4.580706900000223,10.0,4.181501999999455,-0.0,2.265047000000777,<function functiondiffB at 0x000002460319F7B8>,<function functiondiffC at 0x000002460319F6A8>,<function functiondiffA at 0x000002460319F488>,,,,,2947.2226143000007,2999.6527763000013,None,3004.2194383999995,None,3007.3027638999993,None,18,001,2022_Jul_19_1241,2leo,2021.2.3,59.994948425291234,
3,27,Plan what festival to visit with your friends,Stimuli/27A1.jpg,Stimuli/27A2.jpg,Stimuli/27A3.jpg,Stimuli/27B1.jpg,Stimuli/27B2.jpg,Stimuli/27B3.jpg,Stimuli/27C1.jpg,Stimuli/27C2.jpg,Stimuli/27C3.jpg,,,,,0,39,39,27,,,,,,,,3008.8036818,None,3009.802677399999,None,3015.802590700001,None,"[0.306, 0.255]","[0.066, -0.395]","[-0.377, 0.138]","[0.399, -0.003]","[-0.203, -0.347]","[-0.2, 0.346]","[0.07, 0.393]","[0.304, -0.26]","[-0.378, -0.136]",,14.251067199998943,23.934412099999463,8.884980699996959,"[0.3277777777777778, -0.387037037037037, -0.21944444444444444]","[-0.25277777777777777, 0.13703703703703704, -0.287962962962963]","[1, 1, 1]","[0, 0, 0]","[0, 0, 0]","[8.882530700000643, 14.249088599997776, 23.932303199999296]",0.00135509999745409,23.933555099996738,['A3'],['B2'],['C2'],['salmon'],['blue'],['yellow'],3041.3846950000006,None,2.0,3.8637180000005173,3041.3846950000006,None,3045.334936700001,None,9.0,3.6812465000002703,3053.3014294000022,None,1.0,2.8819913000006636,3049.0513642000005,None,1.0,4.231875599998602,<function functionImportanceA at 0x000002460227B0D0>,<function functionImportanceB at 0x000002460282C8C8>,<function functionImportanceC at 0x000002460282C488>,,,10.0,2.2812340000018594,8.0,3.6812465000002703,-0.0,4.3978868999984115,<function functiondiffA at 0x0000024600F55268>,<function functiondiffC at 0x0000024602DEA0D0>,<function functiondiffB at 0x0000024602DEA7B8>,,,,,3017.037465199999,3063.2010771999994,None,3060.551102199999,None,3056.134689800001,None,18,001,2022_Jul_19_1241,2leo,2021.2.3,59.994948425291234,
3,19,Plan how you want your garden to look like,Stimuli/19A1.jpg,Stimuli/19A2.jpg,Stimuli/19A3.jpg,Stimuli/19B1.jpg,Stimuli/19B2.jpg,Stimuli/19B3.jpg,Stimuli/19C1.jpg,Stimuli/19C2.jpg,Stimuli/19C3.jpg,,,,,0,40,40,19,,,,,,,,3065.0028058000025,None,3066.0176735000023,None,3072.0175280000003,None,"[0.399, -0.003]","[-0.203, -0.347]","[-0.2, 0.346]","[0.306, 0.255]","[0.066, -0.395]","[-0.377, 0.138]","[0.07, 0.393]","[0.304, -0.26]","[-0.378, -0.136]",,12.335691759999463,16.63551966000159,8.03593366000132,"[0.2814814814814815, 0.32314814814814813, 0.09814814814814815]","[-0.18518518518518517, -0.06111111111111111, -0.35]","[1, 1, 1]","[0, 0, 0]","[0, 0, 0]","[8.020187799997075, 12.320577499998763, 16.61984609999854]",0.014711060000990983,16.634369359999255,['A1'],['B2'],['C2'],['yellow'],['salmon'],['blue'],3092.733523400002,None,9.0,3.714054299998679,3092.733523400002,None,3103.3342691,None,6.0,3.614872900001501,3108.2998522000016,None,3.0,4.731762399998843,3097.600173900002,None,10.0,6.780392299999221,<function functionImportanceB at 0x000002460319F620>,<function functionImportanceA at 0x000002460319F8C8>,<function functionImportanceC at 0x000002460319F378>,,,2.0,5.181080199999997,-0.0,3.614872900001501,9.0,3.0147041999989597,<function functiondiffC at 0x0000024602DEA268>,<function functiondiffB at 0x000002460282CEA0>,<function functiondiffA at 0x0000024600F55BF8>,,,,,3075.6468814,3116.8164056000023,None,3112.0331095,None,3121.799515999999,None,18,001,2022_Jul_19_1241,2leo,2021.2.3,59.994948425291234,
3,43,Plan your dream house,Stimuli/43A1.jpg,Stimuli/43A2.jpg,Stimuli/43A3.jpg,Stimuli/43B1.jpg,Stimuli/43B2.jpg,Stimuli/43B3.jpg,Stimuli/43C1.jpg,Stimuli/43C2.jpg,Stimuli/43C3.jpg,,,,,0,41,41,43,,,,,,,,3124.3174359000004,None,3125.3325938000016,None,3131.3325700000023,None,"[0.399, -0.003]","[-0.2, 0.346]","[-0.203, -0.347]","[0.07, 0.393]","[-0.378, -0.136]","[0.304, -0.26]","[0.306, 0.255]","[-0.377, 0.138]","[0.066, -0.395]",,17.91247472000032,7.612786120000237,12.713103520000004,"[-0.3814814814814815, 0.075, -0.19074074074074074]","[-0.08148148148148149, -0.43425925925925923, -0.32592592592592595]","[1, 1, 1]","[0, 0, 0]","[0, 0, 0]","[7.596393899999384, 12.696368500000972, 17.896245899999485]",0.015621919999830425,17.911671720001323,['A3'],['B2'],['C3'],['blue'],['yellow'],['salmon'],3150.898521400002,None,9.0,2.629947000001266,3150.898521400002,None,3156.764930000001,None,1.0,2.6317089999974996,3153.6316202000016,None,10.0,3.1310722999987775,3159.4151859000012,None,9.0,2.665397999997367,<function functionImportanceC at 0x000002460319FF28>,<function functionImportanceA at 0x000002460319F950>,<function functionImportanceB at 0x000002460319F840>,,,8.0,3.231167000001733,-0.0,2.6317089999974996,10.0,3.4143994999976712,<function functiondiffC at 0x0000024602DEA400>,<function functiondiffB at 0x000002460319FA60>,<function functiondiffA at 0x000002460319F0D0>,,,,,3132.5165484999998,3165.898220400002,None,3162.0482642999996,None,3169.148116100001,None,18,001,2022_Jul_19_1241,2leo,2021.2.3,59.994948425291234,
3,21,Plan your sandwich for lunch,Stimuli/21A1.jpg,Stimuli/21A2.jpg,Stimuli/21A3.jpg,Stimuli/21B1.jpg,Stimuli/21B2.jpg,Stimuli/21B3.jpg,Stimuli/21C1.jpg,Stimuli/21C2.jpg,Stimuli/21C3.jpg,,,,,0,42,42,21,,,,,,,,3172.083035800002,None,3173.097813299999,None,3179.097998699999,None,"[0.07, 0.393]","[-0.378, -0.136]","[0.304, -0.26]","[0.399, -0.003]","[-0.2, 0.346]","[-0.203, -0.347]","[0.306, 0.255]","[-0.377, 0.138]","[0.066, -0.395]",,3.4521842899994226,10.40244819000145,11.752475990000676,"[0.012037037037037037, -0.20092592592592592, -0.3037037037037037]","[0.3388888888888889, -0.32037037037037036, 0.08518518518518518]","[1, 1, 1]","[0, 0, 0]","[0, 0, 0]","[3.4499800999983563, 10.399801799998386, 11.749691100001655]",0.0017868899994937237,11.751293490000535,['A1'],['B3'],['C2'],['yellow'],['blue'],['salmon'],3192.480670000001,None,10.0,2.8300356999970973,3192.480670000001,None,3195.3805603,None,10.0,3.397441599998274,3202.480428499999,None,2.0,5.181732100001682,3198.7806413,None,1.0,3.665203399999882,<function functionImportanceA at 0x000002460319F400>,<function functionImportanceB at 0x000002460319F2F0>,<function functionImportanceC at 0x00000246039D6048>,,,9.0,5.198002900000574,6.0,3.397441599998274,0.0,2.265018299996882,<function functiondiffB at 0x0000024602DEA488>,<function functiondiffC at 0x00000246039D61E0>,<function functiondiffA at 0x000002460282C400>,,,,,3180.2453271000013,3207.6470897,None,3212.8470328000003,None,3218.0302164000022,None,18,001,2022_Jul_19_1241,2leo,2021.2.3,59.994948425291234,
3,41,Plan how you want to have dinner tonight ,Stimuli/41A1.jpg,Stimuli/41A2.jpg,Stimuli/41A3.jpg,Stimuli/41B1.jpg,Stimuli/41B2.jpg,Stimuli/41B3.jpg,Stimuli/41C1.jpg,Stimuli/41C2.jpg,Stimuli/41C3.jpg,,,,,0,43,43,41,,,,,,,,3219.8318547000017,None,3220.8465058,None,3226.8466227999997,None,"[-0.203, -0.347]","[-0.2, 0.346]","[0.399, -0.003]","[0.304, -0.26]","[-0.378, -0.136]","[0.07, 0.393]","[0.066, -0.395]","[-0.377, 0.138]","[0.306, 0.255]",,4.3728978100007225,28.072591510001075,19.206738209999457,"[-0.18055555555555555, 0.2722222222222222, 0.26481481481481484]","[-0.4212962962962963, 0.3138888888888889, -0.2324074074074074]","[1, 1, 1]","[0, 0, 0]","[0, 0, 0]","[4.367573600000469, 19.20072169999912, 28.067005900000368]",0.004912010001135059,28.07176380999954,['A1'],['B1'],['C3'],['salmon'],['yellow'],['blue'],3256.745636899999,None,8.0,3.0637410000017553,3256.745636899999,None,3269.0621893999996,None,9.0,2.681828200002201,3260.045551200001,None,7.0,5.880995699997584,3265.778828999999,None,10.0,3.248518200001854,<function functionImportanceC at 0x00000246039D6400>,<function functionImportanceB at 0x00000246039D60D0>,<function functionImportanceA at 0x0000024602DEA9D8>,,,-0.0,2.7481748000027437,10.0,2.681828200002201,3.0,3.364527100002306,<function functiondiffC at 0x00000246039D6730>,<function functiondiffA at 0x000002460319FB70>,<function functiondiffB at 0x0000024602DEAAE8>,,,,,3228.1945668000008,3278.7118580000024,None,3271.7453892000012,None,3275.3286222999996,None,18,001,2022_Jul_19_1241,2leo,2021.2.3,59.994948425291234,
3,25,Plan how you want to read a book in your free time ,Stimuli/25A1.jpg,Stimuli/25A2.jpg,Stimuli/25A3.jpg,Stimuli/25B1.jpg,Stimuli/25B2.jpg,Stimuli/25B3.jpg,Stimuli/25C1.jpg,Stimuli/25C2.jpg,Stimuli/25C3.jpg,,,,,0,44,44,25,,,,,,,,3280.980174600001,None,3281.9946581000004,None,3287.995049000001,None,"[0.306, 0.255]","[-0.377, 0.138]","[0.066, -0.395]","[0.399, -0.003]","[-0.2, 0.346]","[-0.203, -0.347]","[0.07, 0.393]","[-0.378, -0.136]","[0.304, -0.26]",,16.097332989997085,11.347740589997557,3.381680189995677,"[0.30648148148148147, -0.20185185185185187, 0.3333333333333333]","[-0.2462962962962963, 0.3861111111111111, 0.23148148148148148]","[1, 1, 1]","[0, 0, 0]","[0, 0, 0]","[3.3708762000023853, 11.337257600000157, 16.08719729999939]",0.009717589997308096,16.09677408999778,['A1'],['B2'],['C3'],['blue'],['salmon'],['yellow'],3306.0441506000025,None,9.0,2.7299962999968557,3306.0441506000025,None,3308.8440152000003,None,10.0,7.380802299998322,3320.564763300001,None,10.0,4.531650500000978,3316.2774080000017,None,6.0,3.9818609000030847,<function functionImportanceA at 0x00000246039D6A60>,<function functionImportanceB at 0x00000246039D68C8>,<function functionImportanceC at 0x00000246039D6B70>,,,0.0,3.1817702000007557,0.0,7.380802299998322,2.0,4.831263600000966,<function functiondiffA at 0x0000024602DEA840>,<function functiondiffB at 0x0000024602DEAA60>,<function functiondiffC at 0x00000246039D6268>,,,,,3289.485767099999,3329.6269715000017,None,3332.8768710000004,None,3324.7604140000003,None,18,001,2022_Jul_19_1241,2leo,2021.2.3,59.994948425291234,
