Condition,N_Scenario,written_scenario,ImageA1,ImageA2,ImageA3,ImageB1,ImageB2,ImageB3,ImageC1,ImageC2,ImageC3,trials_2.thisRepN,trials_2.thisTrialN,trials_2.thisN,trials_2.thisIndex,trial.thisRepN,trial.thisTrialN,trial.thisN,trial.thisIndex,button_2.started,button_2.stopped,button_2.numClicks,button_2.timesOn,button_2.timesOff,text.started,text.stopped,fixationcross1_started,fixationcross1_stopped,Scenario_started,Scenario_stopped,fixationcross2_started,fixationcross2_stopped,A1pos,A2pos,A3pos,B1pos,B2pos,B3pos,C1pos,C2pos,C3pos,﻿Imagesdecision_started,decisiontimeA,decisiontimeB,decisiontimeC,mouse_x,mouse_y,mouse_leftButton,mouse_midButton,mouse_rightButton,mouse_time,mouse_started,mouse_stopped,clicked_optionA,clicked_optionB,clicked_optionC,colour_category_A,colour_category_B,colour_category_C,question_confidence_started,question_confidence_stopped,slider_confidence_response,slider_confidence_rt,slider_confidence_started,slider_confidence_stopped,question_valueA_started,question_valueA_stopped,slider_valueA_response,slider_valueA_rt,question_valueC_started,question_valueC_stopped,slider_valueC_response,slider_valueC_rt,question_valueB_started,question_valueB_stopped,slider_valueB_response,slider_valueB_rt,Importance_First,Importance_Second,Importance_Third,question_diff_started,question_diff_stopped,slider_diffC_response,slider_diffC_rt,slider_diffA_response,slider_diffA_rt,slider_diffB_response,slider_diffB_rt,diff_First,diff_Second,diff_Third,button_3_started,button_3_stopped,text_2_started,text_2_stopped,Imagesdecision_started,question_diffA_started,question_diffA_stopped,question_diffB_started,question_diffB_stopped,question_diffC_started,question_diffC_stopped,participant,session,date,expName,psychopyVersion,frameRate,
3,2,Plan a party to celebrate your birthday,Stimuli/2A1t.jpg,Stimuli/2A2t.jpg,Stimuli/2A3t.jpg,Stimuli/2B1t.jpg,Stimuli/2B2t.jpg,Stimuli/2B3t.jpg,Stimuli/2C1t.jpg,Stimuli/2C2t.jpg,Stimuli/2C3t.jpg,0,0,0,0,,,,,35.77476879999813,None,1,[2.025529700000334],[2.0255336000009265],35.77476879999813,None,88.95395840000128,None,89.95758149999892,None,95.95734299999822,None,"[0.399, -0.003]","[-0.2, 0.346]","[-0.203, -0.347]","[0.07, 0.393]","[-0.378, -0.136]","[0.304, -0.26]","[0.306, 0.255]","[-0.377, 0.138]","[0.066, -0.395]",99.97543750000114,4.906599029967765,13.140671629967983,8.457331929970678,"[0.3851851851851852, -0.33611111111111114, -0.42592592592592593]","[-0.004629629629629629, 0.15185185185185185, -0.062037037037037036]","[1, 1, 1]","[0, 0, 0]","[0, 0, 0]","[4.894404400001804, 8.444597699999576, 13.128185400000802]",0.011705229968356434,13.139370129967574,['A1'],['B2'],['C2'],['salmon'],['yellow'],['blue'],113.57321519999823,None,10.0,4.495892200000526,113.57321519999823,None,119.40934619999825,None,10.0,16.030121899999358,134.20763699999952,None,7.0,7.381159500000649,143.12255350000123,None,6.0,12.247861400002876,<function functionImportanceAt at 0x000002AE087B3268>,<function functionImportanceCt at 0x000002AE15ED1A60>,<function functionImportanceBt at 0x000002AE068F1E18>,171.15487099999882,None,0.0,8.597155200000998,6.0,16.030121899999358,4.0,8.614355200003047,<function functiondiffCt at 0x000002AE16C45950>,<function functiondiffAt at 0x000002AE16C45C80>,<function functiondiffBt at 0x000002AE16C451E0>,,,,,,,,,,,,19,001,2022_Jul_19_1344,2leo,2021.2.3,60.02400960367167,
3,3,Plan one week of vacation,Stimuli/3A1t.jpg,Stimuli/3A2t.jpg,Stimuli/3A3t.jpg,Stimuli/3B1t.jpg,Stimuli/3B2t.jpg,Stimuli/3B3t.jpg,Stimuli/3C1t.jpg,Stimuli/3C2t.jpg,Stimuli/3C3t.jpg,0,1,1,1,,,,,,,,,,,,178.85481119999895,None,179.85453280000002,None,185.85473730000012,None,"[-0.377, 0.138]","[0.306, 0.255]","[0.066, -0.395]","[-0.378, -0.136]","[0.07, 0.393]","[0.304, -0.26]","[-0.2, 0.346]","[0.399, -0.003]","[-0.203, -0.347]",191.9816127999984,15.413743209941458,6.997413609944488,12.497334409941686,"[-0.34814814814814815, -0.20185185185185187, 0.262037037037037]","[-0.12407407407407407, 0.3398148148148148, 0.2518518518518518]","[1, 1, 1]","[0, 0, 0]","[0, 0, 0]","[6.989965299999312, 12.489625599999272, 15.406480499997997]",0.006750509943231009,15.413023509943741,['A2'],['B1'],['C1'],['blue'],['yellow'],['salmon'],207.8536767000005,None,8.0,8.16400970000177,207.8536767000005,None,229.07258680000086,None,10.0,9.948236099997303,238.56981670000096,None,6.0,11.898405600000842,217.78704669999934,None,10.0,11.064558199999738,<function functionImportanceBt at 0x000002AE15ED1268>,<function functionImportanceAt at 0x000002AE15ED1E18>,<function functionImportanceCt at 0x000002AE040031E0>,259.58570229999896,None,7.0,5.131146499999886,0.0,9.948236099997303,3.0,4.914406100000633,<function functiondiffAt at 0x000002AE16C45510>,<function functiondiffCt at 0x000002AE16C45730>,<function functiondiffBt at 0x000002AE16C459D8>,,,,,,,,,,,,19,001,2022_Jul_19_1344,2leo,2021.2.3,60.02400960367167,
3,31,Plan your order at a restaurant    ,Stimuli/31A1.jpg,Stimuli/31A2.jpg,Stimuli/31A3.jpg,Stimuli/31B1.jpg,Stimuli/31B2.jpg,Stimuli/31B3.jpg,Stimuli/31C1.jpg,Stimuli/31C2.jpg,Stimuli/31C3.jpg,,,,,0,0,0,31,,,,,,,,319.33293910000066,None,320.31754739999815,None,326.3174265000016,None,"[-0.2, 0.346]","[-0.203, -0.347]","[0.399, -0.003]","[-0.378, -0.136]","[0.304, -0.26]","[0.07, 0.393]","[-0.377, 0.138]","[0.066, -0.395]","[0.306, 0.255]",,20.66093879998516,14.810864499984746,25.543976899985864,"[0.0962962962962963, 0.37222222222222223, -0.3712962962962963]","[0.32685185185185184, 0.021296296296296296, 0.1814814814814815]","[1, 1, 1]","[0, 0, 0]","[0, 0, 0]","[14.804631300001347, 20.65501089999816, 25.537702300000092]",0.005309199983457802,25.542985799984308,['A3'],['B3'],['C1'],['yellow'],['salmon'],['blue'],354.9997122999994,None,10.0,7.59603000000061,354.9997122999994,None,379.43255520000093,None,10.0,4.164956099997653,373.7825582000005,None,8.0,4.2314827000009245,362.71629530000064,None,4.0,11.013915999999881,<function functionImportanceB at 0x000002AE16C45F28>,<function functionImportanceC at 0x000002AE178D2158>,<function functionImportanceA at 0x000002AE15ED16A8>,,,1.0,4.164956099997653,2.0,7.880576100000326,7.0,8.264207500000339,<function functiondiffA at 0x000002AE16C450D0>,<function functiondiffB at 0x000002AE16C45620>,<function functiondiffC at 0x000002AE16C45400>,263.6190166999986,None,263.6190166999986,None,328.99465229999987,382.4488283999999,None,389.9988076000009,None,398.28175439999904,None,19,001,2022_Jul_19_1344,2leo,2021.2.3,60.02400960367167,
3,37,Plan your cleaning routine ,Stimuli/37A1.jpg,Stimuli/37A2.jpg,Stimuli/37A3.jpg,Stimuli/37B1.jpg,Stimuli/37B2.jpg,Stimuli/37B3.jpg,Stimuli/37C1.jpg,Stimuli/37C2.jpg,Stimuli/37C3.jpg,,,,,0,1,1,37,,,,,,,,404.03173679999963,None,405.03175360000023,None,411.0315883000003,None,"[-0.378, -0.136]","[0.07, 0.393]","[0.304, -0.26]","[-0.377, 0.138]","[0.306, 0.255]","[0.066, -0.395]","[-0.2, 0.346]","[0.399, -0.003]","[-0.203, -0.347]",,21.051941809997516,11.952623109998967,36.70172710999759,"[0.2935185185185185, -0.4101851851851852, -0.1648148148148148]","[0.2972222222222222, -0.10925925925925926, 0.37592592592592594]","[1, 1, 1]","[0, 0, 0]","[0, 0, 0]","[11.950764899997012, 21.050434699998732, 36.69967259999976]",0.0010829099992406555,36.70061610999619,['A1'],['B2'],['C1'],['yellow'],['blue'],['salmon'],449.3304332000007,None,6.0,3.9305552000005264,449.3304332000007,None,453.36375169999883,None,10.0,14.730767900000501,468.0800052000013,None,2.0,5.198037300000578,473.2799739000002,None,10.0,4.1317028000012215,<function functionImportanceA at 0x000002AE0B550E18>,<function functionImportanceC at 0x000002AE178D2D90>,<function functionImportanceB at 0x000002AE16C45A60>,,,8.0,14.730767900000501,2.0,7.081392399999459,-0.0,3.947538300002634,<function functiondiffB at 0x000002AE178D2B70>,<function functiondiffC at 0x000002AE178D2A60>,<function functiondiffA at 0x000002AE178D26A8>,,,,,412.1466885000009,483.92958870000075,None,477.41307270000107,None,481.37978609999846,None,19,001,2022_Jul_19_1344,2leo,2021.2.3,60.02400960367167,
3,36,Plan your shopping for new clothing,Stimuli/36A1.jpg,Stimuli/36A2.jpg,Stimuli/36A3.jpg,Stimuli/36B1.jpg,Stimuli/36B2.jpg,Stimuli/36B3.jpg,Stimuli/36C1.jpg,Stimuli/36C2.jpg,Stimuli/36C3.jpg,,,,,0,2,2,36,,,,,,,,490.5294074000012,None,491.52946000000156,None,497.5292394999997,None,"[-0.2, 0.346]","[-0.203, -0.347]","[0.399, -0.003]","[-0.378, -0.136]","[0.304, -0.26]","[0.07, 0.393]","[-0.377, 0.138]","[0.066, -0.395]","[0.306, 0.255]",,22.906436669996765,41.189667569997255,30.0068870699979,"[-0.1685185185185185, 0.006481481481481481, 0.275]","[0.32407407407407407, -0.36666666666666664, -0.262037037037037]","[1, 1, 1]","[0, 0, 0]","[0, 0, 0]","[22.894347199999174, 29.994175600000744, 41.17720420000114]",0.011682469998049783,41.188776169998164,['A1'],['B2'],['C2'],['blue'],['yellow'],['salmon'],540.3279444,None,7.0,5.3469526000008045,540.3279444,None,560.4440380000015,None,7.0,5.731518800002959,545.7446157000013,None,10.0,9.214250799999718,554.9605167000009,None,9.0,5.448201900002459,<function functionImportanceC at 0x000002AE178D2D08>,<function functionImportanceB at 0x000002AE178D2950>,<function functionImportanceA at 0x000002AE16C45EA0>,,,1.0,5.731518800002959,5.0,6.130995200001053,9.0,3.381500600000436,<function functiondiffA at 0x000002AE178D2AE8>,<function functiondiffC at 0x000002AE178D2C80>,<function functiondiffB at 0x000002AE178D2E18>,,,,,498.66550030000144,566.1605835000009,None,574.9102821000015,None,572.2939019000005,None,19,001,2022_Jul_19_1344,2leo,2021.2.3,60.02400960367167,
3,25,Plan how you want to read a book in your free time ,Stimuli/25A1.jpg,Stimuli/25A2.jpg,Stimuli/25A3.jpg,Stimuli/25B1.jpg,Stimuli/25B2.jpg,Stimuli/25B3.jpg,Stimuli/25C1.jpg,Stimuli/25C2.jpg,Stimuli/25C3.jpg,,,,,0,3,3,25,,,,,,,,577.8101013999985,None,578.8102728000013,None,584.8102149000006,None,"[-0.377, 0.138]","[0.066, -0.395]","[0.306, 0.255]","[-0.378, -0.136]","[0.304, -0.26]","[0.07, 0.393]","[-0.2, 0.346]","[-0.203, -0.347]","[0.399, -0.003]",,19.5040180099968,15.754588409996359,5.521773709995614,"[0.4546296296296296, 0.30648148148148147, -0.34814814814814815]","[0.000925925925925926, -0.2611111111111111, 0.16574074074074074]","[1, 1, 1]","[0, 0, 0]","[0, 0, 0]","[5.518507199998567, 15.751685999999609, 19.501479200000176]",0.0021243099945422728,19.503578209994885,['A1'],['B2'],['C3'],['salmon'],['yellow'],['blue'],606.2426269999996,None,10.0,4.997371900000871,606.2426269999996,None,611.3094220999992,None,10.0,5.731075499999861,617.3589681999983,None,10.0,7.947920400001749,625.0588585000005,None,6.0,7.148460200001864,<function functionImportanceA at 0x000002AE178D28C8>,<function functionImportanceC at 0x000002AE178D2840>,<function functionImportanceB at 0x000002AE178D2488>,,,-0.0,5.731075499999861,-0.0,2.6643986999988556,6.0,9.464784600000712,<function functiondiffA at 0x000002AE13C029D8>,<function functiondiffC at 0x000002AE16C458C8>,<function functiondiffB at 0x000002AE178D2620>,,,,,586.2696378,632.1420288000008,None,637.7587042999985,None,634.9255143999981,None,19,001,2022_Jul_19_1344,2leo,2021.2.3,60.02400960367167,
3,33,Plan the items to decorate your Christmas tree,Stimuli/33A1.jpg,Stimuli/33A2.jpg,Stimuli/33A3.jpg,Stimuli/33B1.jpg,Stimuli/33B2.jpg,Stimuli/33B3.jpg,Stimuli/33C1.jpg,Stimuli/33C2.jpg,Stimuli/33C3.jpg,,,,,0,4,4,33,,,,,,,,646.7248376999996,None,647.7249693000012,None,653.7249373000013,None,"[-0.377, 0.138]","[0.066, -0.395]","[0.306, 0.255]","[-0.2, 0.346]","[-0.203, -0.347]","[0.399, -0.003]","[-0.378, -0.136]","[0.304, -0.26]","[0.07, 0.393]",,30.195667799991497,58.49547819999134,48.7462676999894,"[-0.3101851851851852, 0.06574074074074074, -0.1925925925925926]","[0.12962962962962962, 0.35833333333333334, -0.32407407407407407]","[1, 1, 1]","[0, 0, 0]","[0, 0, 0]","[30.188699800000904, 48.73862110000118, 58.488023599998996]",0.006546299991896376,58.4945562999892,['A1'],['B2'],['C3'],['salmon'],['yellow'],['blue'],714.3563558999995,None,2.0,3.829929199997423,714.3563558999995,None,731.7726855000001,None,8.0,4.314784400001372,718.2894338000006,None,6.0,8.897759499999665,727.1562234999983,None,3.0,4.065631699999358,<function functionImportanceC at 0x000002AE178D2048>,<function functionImportanceB at 0x000002AE178D2EA0>,<function functionImportanceA at 0x000002AE1326EF28>,,,6.0,4.314784400001372,7.0,6.747738199999731,3.0,3.031425899996975,<function functiondiffA at 0x000002AE178D2510>,<function functiondiffB at 0x000002AE15D90EA0>,<function functiondiffC at 0x000002AE138AE840>,,,,,655.3995099999993,735.6892337999998,None,742.3223029000001,None,745.3723528999981,None,19,001,2022_Jul_19_1344,2leo,2021.2.3,60.02400960367167,
3,17,Plan a day in Barcelona with a friend who is new to the city,Stimuli/17A1.jpg,Stimuli/17A2.jpg,Stimuli/17A3.jpg,Stimuli/17B1.jpg,Stimuli/17B2.jpg,Stimuli/17B3.jpg,Stimuli/17C1.jpg,Stimuli/17C2.jpg,Stimuli/17C3.jpg,,,,,0,5,5,17,,,,,,,,754.238489899999,None,755.2386121999989,None,761.2385686000016,None,"[-0.2, 0.346]","[-0.203, -0.347]","[0.399, -0.003]","[-0.377, 0.138]","[0.066, -0.395]","[0.306, 0.255]","[-0.378, -0.136]","[0.304, -0.26]","[0.07, 0.393]",,12.7578362299937,3.8914367299948935,29.32464522999362,"[0.016666666666666666, 0.40555555555555556, 0.11481481481481481]","[-0.37777777777777777, 0.008333333333333333, 0.3851851851851852]","[1, 1, 1]","[0, 0, 0]","[0, 0, 0]","[3.886668200000713, 12.753269300003012, 29.319572600001266]",0.003974629995354917,29.323242329992354,['A3'],['B2'],['C3'],['yellow'],['salmon'],['blue'],792.2207559000017,None,10.0,5.9970579000000726,792.2207559000017,None,798.3207237999995,None,10.0,8.680591299998923,810.9203237000002,None,7.0,4.332022100003087,806.9872834999987,None,10.0,3.915171900000132,<function functionImportanceA at 0x000002AE178D27B8>,<function functionImportanceB at 0x000002AE178D2F28>,<function functionImportanceC at 0x000002AE138AE730>,,,9.0,8.680591299998923,3.0,3.6647563999977137,-0.0,3.0491846000004443,<function functiondiffB at 0x000002AE178D2730>,<function functiondiffA at 0x000002AE178D2598>,<function functiondiffC at 0x000002AE138AE2F0>,,,,,762.4171300999988,818.3037119,None,815.2371303,None,821.9702388000005,None,19,001,2022_Jul_19_1344,2leo,2021.2.3,60.02400960367167,
3,19,Plan how you want your garden to look like,Stimuli/19A1.jpg,Stimuli/19A2.jpg,Stimuli/19A3.jpg,Stimuli/19B1.jpg,Stimuli/19B2.jpg,Stimuli/19B3.jpg,Stimuli/19C1.jpg,Stimuli/19C2.jpg,Stimuli/19C3.jpg,,,,,0,6,6,19,,,,,,,,824.3199315999991,None,825.3200083999982,None,831.3199029999996,None,"[-0.203, -0.347]","[0.399, -0.003]","[-0.2, 0.346]","[0.304, -0.26]","[0.07, 0.393]","[-0.378, -0.136]","[0.066, -0.395]","[0.306, 0.255]","[-0.377, 0.138]",,13.908257509974646,23.124426609974762,6.891756809971412,"[0.000925925925925926, -0.22592592592592592, 0.12129629629629629]","[-0.3435185185185185, -0.32222222222222224, 0.41759259259259257]","[1, 1, 1]","[0, 0, 0]","[0, 0, 0]","[6.886880300000485, 13.903828200000135, 23.119767500000307]",0.003878009974869201,23.123427009973966,['A1'],['B2'],['C1'],['blue'],['salmon'],['yellow'],858.5356823000002,None,8.0,3.430045199998858,858.5356823000002,None,862.0521307999988,None,8.0,18.447238100001414,881.8685737999986,None,9.0,4.831538999998884,886.451599699998,None,6.0,4.781849799997872,<function functionImportanceA at 0x000002AE138AE510>,<function functionImportanceC at 0x000002AE138AE598>,<function functionImportanceB at 0x000002AE138AE9D8>,,,-0.0,18.447238100001414,1.0,3.09805150000102,6.0,5.314365999998699,<function functiondiffA at 0x000002AE138AE048>,<function functiondiffC at 0x000002AE138AE158>,<function functiondiffB at 0x000002AE138AE0D0>,,,,,834.9501487000016,890.1349489999993,None,896.3513276000012,None,893.6182746000013,None,19,001,2022_Jul_19_1344,2leo,2021.2.3,60.02400960367167,
3,42,Plan how to draw a painting ,Stimuli/42A1.jpg,Stimuli/42A2.jpg,Stimuli/42A3.jpg,Stimuli/42B1.jpg,Stimuli/42B2.jpg,Stimuli/42B3.jpg,Stimuli/42C1.jpg,Stimuli/42C2.jpg,Stimuli/42C3.jpg,,,,,0,7,7,42,,,,,,,,900.9510850000006,None,901.9513344000006,None,907.9511115999994,None,"[0.07, 0.393]","[-0.378, -0.136]","[0.304, -0.26]","[0.399, -0.003]","[-0.2, 0.346]","[-0.203, -0.347]","[0.306, 0.255]","[-0.377, 0.138]","[0.066, -0.395]",,17.600920939996286,25.74868833999426,19.765846939993935,"[-0.35833333333333334, 0.33240740740740743, -0.1527777777777778]","[-0.12129629629629629, 0.26851851851851855, -0.337037037037037]","[1, 1, 1]","[0, 0, 0]","[0, 0, 0]","[17.59190729999682, 19.75721649999832, 25.740153199996712]",0.0077050399959261995,25.747750739996263,['A2'],['B3'],['C1'],['yellow'],['blue'],['salmon'],935.4667855000007,None,10.0,1.7637844999990193,935.4667855000007,None,950.4497709999996,None,10.0,2.848583700000745,937.3334848999984,None,10.0,6.897741500000848,944.2333894000003,None,6.0,6.065318200002366,<function functionImportanceC at 0x000002AE138AEC80>,<function functionImportanceB at 0x000002AE178D2268>,<function functionImportanceA at 0x000002AE178D29D8>,,,-0.0,2.848583700000745,-0.0,2.3147222000006877,3.0,3.4980174000011175,<function functiondiffC at 0x000002AE138AE950>,<function functiondiffB at 0x000002AE16C45378>,<function functiondiffA at 0x000002AE16C45488>,,,,,909.2432335999983,959.5665044999987,None,955.9997970000004,None,953.1332365999988,None,19,001,2022_Jul_19_1344,2leo,2021.2.3,60.02400960367167,
3,34,Plan what car you want to buy,Stimuli/34A1.jpg,Stimuli/34A2.jpg,Stimuli/34A3.jpg,Stimuli/34B1.jpg,Stimuli/34B2.jpg,Stimuli/34B3.jpg,Stimuli/34C1.jpg,Stimuli/34C2.jpg,Stimuli/34C3.jpg,,,,,0,8,8,34,,,,,,,,961.3660367000011,None,962.3664944999982,None,968.3663788000013,None,"[-0.2, 0.346]","[-0.203, -0.347]","[0.399, -0.003]","[-0.377, 0.138]","[0.066, -0.395]","[0.306, 0.255]","[-0.378, -0.136]","[0.304, -0.26]","[0.07, 0.393]",,20.068576579975343,6.369424779975816,14.552660379973531,"[-0.4148148148148148, 0.2675925925925926, 0.3509259259259259]","[0.15925925925925927, -0.20462962962962963, 0.002777777777777778]","[1, 1, 1]","[0, 0, 0]","[0, 0, 0]","[6.367683199998282, 14.55056809999951, 20.06692330000078]",0.0010462799764354713,20.067710079976678,['A3'],['B1'],['C2'],['salmon'],['blue'],['yellow'],992.0151831000003,None,9.0,3.3801987000006193,992.0151831000003,None,1013.5148230000013,None,8.0,10.481735000001208,1002.4484190000003,None,7.0,10.031608000001142,996.4340526999986,None,5.0,6.964091000001645,<function functionImportanceB at 0x000002AE138AE6A8>,<function functionImportanceC at 0x000002AE16C456A8>,<function functionImportanceA at 0x000002AE138AEAE8>,,,7.0,10.481735000001208,3.0,3.181263200000103,1.0,2.398029800002405,<function functiondiffC at 0x000002AE178D2BF8>,<function functiondiffA at 0x000002AE138AEF28>,<function functiondiffB at 0x000002AE178D2400>,,,,,971.480007099999,1027.7311216999988,None,1030.8308374000007,None,1022.9645391999984,None,19,001,2022_Jul_19_1344,2leo,2021.2.3,60.02400960367167,
3,1,Plan how to study for an exam,Stimuli/1A1.jpg,Stimuli/1A2.jpg,Stimuli/1A3.jpg,Stimuli/1B1.jpg,Stimuli/1B2.jpg,Stimuli/1B3.jpg,Stimuli/1C1.jpg,Stimuli/1C2.jpg,Stimuli/1C3.jpg,,,,,0,9,9,1,,,,,,,,1032.4973654999994,None,1033.4976467999986,None,1039.497555599999,None,"[-0.203, -0.347]","[-0.2, 0.346]","[0.399, -0.003]","[0.304, -0.26]","[-0.378, -0.136]","[0.07, 0.393]","[0.066, -0.395]","[-0.377, 0.138]","[0.306, 0.255]",,21.66168603999904,11.912078839999594,4.062806639998598,"[0.016666666666666666, 0.3824074074074074, -0.18425925925925926]","[-0.3824074074074074, -0.3194444444444444, -0.3]","[1, 1, 1]","[0, 0, 0]","[0, 0, 0]","[4.055918999998539, 11.905439399997704, 21.655331699999806]",0.005941039999015629,21.661079739998968,['A1'],['B1'],['C1'],['yellow'],['salmon'],['blue'],1062.7632726999982,None,10.0,3.880583000001934,1062.7632726999982,None,1066.746791999998,None,4.0,4.36466030000156,1074.2631791999993,None,9.0,3.0984357000015734,1071.1129889000003,None,10.0,3.1815145000000484,<function functionImportanceA at 0x000002AE138AE620>,<function functionImportanceB at 0x000002AE138AE378>,<function functionImportanceC at 0x000002AE138AEE18>,,,0.0,4.36466030000156,2.0,5.647724599999492,0.0,3.797743300001457,<function functiondiffC at 0x000002AE138AEB70>,<function functiondiffA at 0x000002AE138AE7B8>,<function functiondiffB at 0x000002AE138AE8C8>,,,,,1040.6224784000005,1080.3796172000002,None,1086.0294934000012,None,1077.379783100001,None,19,001,2022_Jul_19_1344,2leo,2021.2.3,60.02400960367167,
3,9,Plan a picnic with friends,Stimuli/9A1.jpg,Stimuli/9A2.jpg,Stimuli/9A3.jpg,Stimuli/9B1.jpg,Stimuli/9B2.jpg,Stimuli/9B3.jpg,Stimuli/9C1.jpg,Stimuli/9C2.jpg,Stimuli/9C3.jpg,,,,,0,10,10,9,,,,,,,,1089.362513600001,None,1090.3625033999997,None,1096.3625802999995,None,"[0.07, 0.393]","[0.304, -0.26]","[-0.378, -0.136]","[0.399, -0.003]","[-0.203, -0.347]","[-0.2, 0.346]","[0.306, 0.255]","[0.066, -0.395]","[-0.377, 0.138]",,20.141598909955064,36.25832470995374,27.97529900995505,"[0.24444444444444444, -0.32592592592592595, -0.21203703703703702]","[-0.2611111111111111, 0.11296296296296296, 0.3398148148148148]","[1, 1, 1]","[0, 0, 0]","[0, 0, 0]","[20.13681799999904, 27.969900599997345, 36.253164599998854]",0.004271109952242114,36.257225909954286,['A2'],['B3'],['C3'],['blue'],['yellow'],['salmon'],1138.5445226999982,None,9.0,5.313382000000274,1138.5445226999982,None,1154.5278287,None,8.0,5.148686799999268,1145.3778813999998,None,0.0,4.531413500000781,1149.744047600001,None,8.0,4.531819899999391,<function functionImportanceC at 0x000002AE1736F730>,<function functionImportanceB at 0x000002AE1736F6A8>,<function functionImportanceA at 0x000002AE138AEEA0>,,,3.0,5.148686799999268,5.0,5.481045199998334,10.0,4.397402900001907,<function functiondiffB at 0x000002AE138AE268>,<function functiondiffA at 0x000002AE138AEA60>,<function functiondiffC at 0x000002AE1736F620>,,,,,1101.8264993000012,1163.0440654000013,None,1158.544155399999,None,1168.5439905999992,None,19,001,2022_Jul_19_1344,2leo,2021.2.3,60.02400960367167,
3,16,Plan a delicious cake for the birthday of a friend,Stimuli/16A1.jpg,Stimuli/16A2.jpg,Stimuli/16A3.jpg,Stimuli/16B1.jpg,Stimuli/16B2.jpg,Stimuli/16B3.jpg,Stimuli/16C1.jpg,Stimuli/16C2.jpg,Stimuli/16C3.jpg,,,,,0,11,11,16,,,,,,,,1172.9434989000001,None,1173.9438732999988,None,1179.9435937000017,None,"[0.304, -0.26]","[0.07, 0.393]","[-0.378, -0.136]","[0.066, -0.395]","[0.306, 0.255]","[-0.377, 0.138]","[-0.203, -0.347]","[0.399, -0.003]","[-0.2, 0.346]",,10.777805139994598,5.89432253999621,15.227633339996828,"[-0.003703703703703704, 0.06574074074074074, -0.16944444444444445]","[-0.3768518518518518, 0.3675925925925926, -0.30277777777777776]","[1, 1, 1]","[0, 0, 0]","[0, 0, 0]","[5.888279299997521, 10.771963199997117, 15.221339299998363]",0.005346239995560609,15.226545339995937,['A2'],['B1'],['C1'],['yellow'],['blue'],['salmon'],1197.1095658000013,None,10.0,2.646992699999828,1197.1095658000013,None,1208.1926720999982,None,10.0,2.931770499999402,1205.1928060999999,None,8.0,3.064999300000636,1200.0762385000016,None,10.0,5.231101199999102,<function functionImportanceB at 0x000002AE1736F9D8>,<function functionImportanceC at 0x000002AE1736F2F0>,<function functionImportanceA at 0x000002AE1736FD90>,,,1.0,2.931770499999402,0.0,4.214195100001234,-0.0,2.4149139000001014,<function functiondiffA at 0x000002AE1736FC80>,<function functiondiffB at 0x000002AE1736F840>,<function functiondiffC at 0x000002AE1736F598>,,,,,1181.4195733000015,1211.0759494999984,None,1215.3422733000007,None,1217.7591437999981,None,19,001,2022_Jul_19_1344,2leo,2021.2.3,60.02400960367167,
3,10,Plan a restaurant visit with your family on the weekend ,Stimuli/10A1.jpg,Stimuli/10A2.jpg,Stimuli/10A3.jpg,Stimuli/10B1.jpg,Stimuli/10B2.jpg,Stimuli/10B3.jpg,Stimuli/10C1.jpg,Stimuli/10C2.jpg,Stimuli/10C3.jpg,,,,,0,12,12,10,,,,,,,,1219.692210199999,None,1220.6922199,None,1226.6923900000002,None,"[0.07, 0.393]","[0.304, -0.26]","[-0.378, -0.136]","[0.306, 0.255]","[0.066, -0.395]","[-0.377, 0.138]","[0.399, -0.003]","[-0.203, -0.347]","[-0.2, 0.346]",,24.375033209969843,11.458877809971455,3.24309590996927,"[-0.15925925925925927, 0.025, 0.3537037037037037]","[0.33611111111111114, -0.3787037037037037, -0.23148148148148148]","[1, 1, 1]","[0, 0, 0]","[0, 0, 0]","[3.237676400000055, 11.453774599998724, 24.370172200000525]",0.004273909969924716,24.37424640997051,['A2'],['B2'],['C3'],['salmon'],['yellow'],['blue'],1255.4911821999995,None,10.0,3.0133991000002425,1255.4911821999995,None,1258.6914097000008,None,5.0,8.66409510000085,1277.9408268000007,None,7.0,4.098452500002168,1270.0078213999986,None,10.0,10.681804800002283,<function functionImportanceA at 0x000002AE1736FA60>,<function functionImportanceB at 0x000002AE1736F0D0>,<function functionImportanceC at 0x000002AE1736F1E0>,,,-0.0,8.66409510000085,3.0,1.9310722000009264,1.0,6.630716600000596,<function functiondiffB at 0x000002AE138AEBF8>,<function functiondiffA at 0x000002AE1736F400>,<function functiondiffC at 0x000002AE138AE400>,,,,,1230.6520969999983,1288.7072030999989,None,1282.8237478999981,None,1290.6404709000017,None,19,001,2022_Jul_19_1344,2leo,2021.2.3,60.02400960367167,
3,13,Plan a romantic date this weekend,Stimuli/13A1.jpg,Stimuli/13A2.jpg,Stimuli/13A3.jpg,Stimuli/13B1.jpg,Stimuli/13B2.jpg,Stimuli/13B3.jpg,Stimuli/13C1.jpg,Stimuli/13C2.jpg,Stimuli/13C3.jpg,,,,,0,13,13,13,,,,,,,,1293.8734507000008,None,1294.8737284999988,None,1300.8735573999984,None,"[0.306, 0.255]","[-0.377, 0.138]","[0.066, -0.395]","[0.07, 0.393]","[-0.378, -0.136]","[0.304, -0.26]","[0.399, -0.003]","[-0.2, 0.346]","[-0.203, -0.347]",,11.953502589996788,20.570360489997256,6.371038689998386,"[0.35, 0.3, 0.08425925925925926]","[0.006481481481481481, 0.3175925925925926, 0.4203703703703704]","[1, 1, 1]","[0, 0, 0]","[0, 0, 0]","[6.368288699999539, 11.951277899999695, 20.567874700001994]",0.00181688999873586,20.569468389996473,['A1'],['B1'],['C1'],['blue'],['yellow'],['salmon'],1323.1393021000004,None,10.0,2.580398400001286,1323.1393021000004,None,1334.8558378999987,None,10.0,4.114794100001745,1338.9722803000004,None,7.0,14.847959399998217,1325.9060886000007,None,8.0,9.03109890000269,<function functionImportanceB at 0x000002AE1736FBF8>,<function functionImportanceA at 0x000002AE1736F510>,<function functionImportanceC at 0x000002AE138AED90>,,,2.0,4.114794100001745,-0.0,2.3811973000010767,2.0,2.3146089000001666,<function functiondiffA at 0x000002AE1736F8C8>,<function functiondiffB at 0x000002AE1736F488>,<function functiondiffC at 0x000002AE1736FEA0>,,,,,1302.0865489999996,1353.805393499999,None,1356.2219203999994,None,1358.5217897000002,None,19,001,2022_Jul_19_1344,2leo,2021.2.3,60.02400960367167,
3,39,Plan what kind of watch you want to buy,Stimuli/39A1.jpg,Stimuli/39A2.jpg,Stimuli/39A3.jpg,Stimuli/39B1.jpg,Stimuli/39B2.jpg,Stimuli/39B3.jpg,Stimuli/39C1.jpg,Stimuli/39C2.jpg,Stimuli/39C3.jpg,,,,,0,14,14,39,,,,,,,,1361.838004000001,None,1362.838334,None,1368.8383355000005,None,"[-0.2, 0.346]","[0.399, -0.003]","[-0.203, -0.347]","[-0.377, 0.138]","[0.306, 0.255]","[0.066, -0.395]","[-0.378, -0.136]","[0.07, 0.393]","[0.304, -0.26]",,12.423380369997176,28.190171069996723,19.39073296999777,"[0.3648148148148148, 0.13518518518518519, 0.058333333333333334]","[0.014814814814814815, 0.38425925925925924, -0.4111111111111111]","[1, 1, 1]","[0, 0, 0]","[0, 0, 0]","[12.419359899999108, 19.386194499998965, 28.185815799999546]",0.003525569998600986,28.189100469997356,['A2'],['B3'],['C2'],['yellow'],['blue'],['salmon'],1398.6539550000016,None,8.0,2.5140658999989682,1398.6539550000016,None,1406.8038259999994,None,9.0,4.1817501000004995,1411.0536023999994,None,0.0,2.9656429999995453,1401.2208167999997,None,10.0,5.547937300001649,<function functionImportanceB at 0x000002AE138AE488>,<function functionImportanceA at 0x000002AE138AE1E0>,<function functionImportanceC at 0x000002AE1736F158>,,,0.0,4.1817501000004995,7.0,3.1981020999992325,8.0,2.3309302000016032,<function functiondiffC at 0x000002AE178437B8>,<function functiondiffA at 0x000002AE1736F048>,<function functiondiffB at 0x000002AE1736F268>,,,,,1369.9838501999984,1417.2703462999998,None,1420.486909799998,None,1413.9702536000004,None,19,001,2022_Jul_19_1344,2leo,2021.2.3,60.02400960367167,
3,30,Plan your sport work out for tomorrow,Stimuli/30A1.jpg,Stimuli/30A2.jpg,Stimuli/30A3.jpg,Stimuli/30B1.jpg,Stimuli/30B2.jpg,Stimuli/30B3.jpg,Stimuli/30C1.jpg,Stimuli/30C2.jpg,Stimuli/30C3.jpg,,,,,0,15,15,30,,,,,,,,1427.1865562999992,None,1428.186400300001,None,1434.1865997999994,None,"[0.306, 0.255]","[0.066, -0.395]","[-0.377, 0.138]","[0.399, -0.003]","[-0.203, -0.347]","[-0.2, 0.346]","[0.07, 0.393]","[0.304, -0.26]","[-0.378, -0.136]",,7.478110459996969,12.411309459996119,3.9951030599950172,"[0.018518518518518517, 0.02962962962962963, 0.39814814814814814]","[0.41759259259259257, -0.36203703703703705, 0.011111111111111112]","[1, 1, 1]","[0, 0, 0]","[0, 0, 0]","[3.980211199999758, 7.463670799999818, 12.39665469999818]",0.013934059996245196,12.410556559996621,['A2'],['B1'],['C1'],['blue'],['salmon'],['yellow'],1448.252451100001,None,10.0,2.997286500001792,1448.252451100001,None,1455.6691785000003,None,10.0,2.7487577000028978,1451.3193778999994,None,10.0,4.331163100003323,1458.4856395999996,None,4.0,4.081657099999575,<function functionImportanceC at 0x000002AE17843D90>,<function functionImportanceA at 0x000002AE17843EA0>,<function functionImportanceB at 0x000002AE17843840>,,,0.0,2.7487577000028978,0.0,2.6808502999992925,1.0,2.764694800000143,<function functiondiffA at 0x000002AE17843A60>,<function functiondiffB at 0x000002AE17843268>,<function functiondiffC at 0x000002AE17843400>,,,,,1435.370036299999,1462.5021813999992,None,1465.2189882999992,None,1467.9854062000013,None,19,001,2022_Jul_19_1344,2leo,2021.2.3,60.02400960367167,
3,3,Plan a movie night with a friend,Stimuli/3A1.jpg,Stimuli/3A2.jpg,Stimuli/3A3.jpg,Stimuli/3B1.jpg,Stimuli/3B2.jpg,Stimuli/3B3.jpg,Stimuli/3C1.jpg,Stimuli/3C2.jpg,Stimuli/3C3.jpg,,,,,0,16,16,3,,,,,,,,1468.835277099999,None,1469.8354316000004,None,1475.8353437000005,None,"[-0.2, 0.346]","[-0.203, -0.347]","[0.399, -0.003]","[-0.378, -0.136]","[0.304, -0.26]","[0.07, 0.393]","[-0.377, 0.138]","[0.066, -0.395]","[0.306, 0.255]",,13.18990565997592,10.189988459973392,4.890405459973408,"[0.2657407407407407, 0.07777777777777778, 0.3212962962962963]","[0.21851851851851853, 0.387037037037037, 0.021296296296296296]","[1, 1, 1]","[0, 0, 0]","[0, 0, 0]","[4.886172400001669, 10.186018700002023, 13.186176800001704]",0.0031310599733842537,13.189009759975306,['A3'],['B3'],['C3'],['yellow'],['blue'],['salmon'],1493.0345941000014,None,10.0,3.6302601999996114,1493.0345941000014,None,1505.8512703999986,None,6.0,4.048447799999849,1511.6190786000006,None,4.0,7.548545499997999,1497.4540453000009,None,9.0,9.097655399997166,<function functionImportanceB at 0x000002AE1736FD08>,<function functionImportanceA at 0x000002AE1736F7B8>,<function functionImportanceC at 0x000002AE178431E0>,,,3.0,4.048447799999849,2.0,4.2650333999990835,6.0,7.564167200001975,<function functiondiffB at 0x000002AE178432F0>,<function functiondiffC at 0x000002AE17843598>,<function functiondiffA at 0x000002AE17843F28>,,,,,1479.3815948999982,1529.1504461000004,None,1517.8171335000006,None,1525.3838680000008,None,19,001,2022_Jul_19_1344,2leo,2021.2.3,60.02400960367167,
3,29,Plan a day in the mountains ,Stimuli/29A1.jpg,Stimuli/29A2.jpg,Stimuli/29A3.jpg,Stimuli/29B1.jpg,Stimuli/29B2.jpg,Stimuli/29B3.jpg,Stimuli/29C1.jpg,Stimuli/29C2.jpg,Stimuli/29C3.jpg,,,,,0,17,17,29,,,,,,,,1532.933198499999,None,1533.9334347000004,None,1539.9335089000015,None,"[0.066, -0.395]","[-0.377, 0.138]","[0.306, 0.255]","[-0.203, -0.347]","[-0.2, 0.346]","[0.399, -0.003]","[0.304, -0.26]","[-0.378, -0.136]","[0.07, 0.393]",,14.32520076000219,23.708988860002137,32.441784959999495,"[0.225, -0.2101851851851852, 0.30092592592592593]","[0.225, 0.34444444444444444, -0.2759259259259259]","[1, 1, 1]","[0, 0, 0]","[0, 0, 0]","[14.320322600000509, 23.703968399997393, 32.43661499999871]",0.004252959999575978,32.44067546000224,['A3'],['B2'],['C1'],['blue'],['salmon'],['yellow'],1574.0491446999986,None,9.0,3.063916099999915,1574.0491446999986,None,1577.2324886999995,None,10.0,8.464697800001886,1585.715458999999,None,10.0,6.881943800002773,1592.5985527000012,None,7.0,2.931969000001118,<function functionImportanceA at 0x000002AE1736FAE8>,<function functionImportanceC at 0x000002AE17843158>,<function functionImportanceB at 0x000002AE138AED08>,,,5.0,8.464697800001886,3.0,3.4481224000010116,7.0,2.8985364999971353,<function functiondiffA at 0x000002AE17843C80>,<function functiondiffB at 0x000002AE178439D8>,<function functiondiffC at 0x000002AE1DD98840>,,,,,1541.1284066000007,1595.4985443000005,None,1598.9485233999985,None,1601.8651649999993,None,19,001,2022_Jul_19_1344,2leo,2021.2.3,60.02400960367167,
3,12,Plan the ingredients to mix yourself a cocktail,Stimuli/12A1.jpg,Stimuli/12A2.jpg,Stimuli/12A3.jpg,Stimuli/12B1.jpg,Stimuli/12B2.jpg,Stimuli/12B3.jpg,Stimuli/12C1.jpg,Stimuli/12C2.jpg,Stimuli/12C3.jpg,,,,,0,18,18,12,,,,,,,,1603.6147715000006,None,1604.6149176,None,1610.6148562999988,None,"[0.066, -0.395]","[0.306, 0.255]","[-0.377, 0.138]","[0.304, -0.26]","[0.07, 0.393]","[-0.378, -0.136]","[-0.203, -0.347]","[0.399, -0.003]","[-0.2, 0.346]",,27.4050153399985,28.238981739996234,7.523247839999385,"[-0.23148148148148148, 0.027777777777777776, 0.04814814814814815]","[0.3712962962962963, -0.3398148148148148, 0.3388888888888889]","[1, 1, 1]","[0, 0, 0]","[0, 0, 0]","[7.519316099998832, 27.40179889999854, 28.23538759999792]",0.0028145399992354214,28.237963139996282,['A1'],['B2'],['C3'],['yellow'],['salmon'],['blue'],1640.463897900001,None,10.0,2.680447299997468,1640.463897900001,None,1643.2305954000003,None,9.0,11.947403000001941,1658.163558199998,None,10.0,2.3821299000010185,1655.1802079000008,None,9.0,2.964706800001295,<function functionImportanceA at 0x000002AE1736F950>,<function functionImportanceB at 0x000002AE1DD98B70>,<function functionImportanceC at 0x000002AE1DD98AE8>,,,0.0,11.947403000001941,4.0,2.747683400000824,7.0,19.397244499999942,<function functiondiffB at 0x000002AE17843D08>,<function functiondiffA at 0x000002AE17843950>,<function functiondiffC at 0x000002AE1DD98950>,,,,,1611.7438772999994,1679.9461617000015,None,1660.5301876999984,None,1682.7128378999987,None,19,001,2022_Jul_19_1344,2leo,2021.2.3,60.02400960367167,
3,27,Plan what festival to visit with your friends,Stimuli/27A1.jpg,Stimuli/27A2.jpg,Stimuli/27A3.jpg,Stimuli/27B1.jpg,Stimuli/27B2.jpg,Stimuli/27B3.jpg,Stimuli/27C1.jpg,Stimuli/27C2.jpg,Stimuli/27C3.jpg,,,,,0,19,19,27,,,,,,,,1683.8123698999989,None,1684.8128840999998,None,1690.8124820999983,None,"[-0.2, 0.346]","[0.399, -0.003]","[-0.203, -0.347]","[-0.377, 0.138]","[0.306, 0.255]","[0.066, -0.395]","[-0.378, -0.136]","[0.07, 0.393]","[0.304, -0.26]",,9.424580409995542,29.49113120999391,16.27516050999475,"[-0.22592592592592592, 0.010185185185185186, -0.4185185185185185]","[0.34444444444444444, 0.36018518518518516, 0.08333333333333333]","[1, 1, 1]","[0, 0, 0]","[0, 0, 0]","[9.411737000002177, 16.261685600002238, 29.477981799998815]",0.012429309994331561,29.490343309993477,['A1'],['B1'],['C2'],['yellow'],['salmon'],['blue'],1721.8782141999982,None,7.0,2.013863300002413,1721.8782141999982,None,1728.461621999999,None,10.0,2.465275400001701,1723.9449717999996,None,3.0,4.498154900000372,1730.9613667999984,None,4.0,4.048287800000253,<function functionImportanceC at 0x000002AE1DD98158>,<function functionImportanceA at 0x000002AE1DD982F0>,<function functionImportanceB at 0x000002AE1DD980D0>,,,2.0,2.465275400001701,2.0,5.314524599998549,4.0,3.6808461000000534,<function functiondiffB at 0x000002AE1DD986A8>,<function functiondiffA at 0x000002AE1DD98BF8>,<function functiondiffC at 0x000002AE1DD98488>,,,,,1691.9156871999985,1738.6945414000002,None,1734.9946971999998,None,1744.027786999999,None,19,001,2022_Jul_19_1344,2leo,2021.2.3,60.02400960367167,
3,8,Plan the interior of your living-room ,Stimuli/8A1.jpg,Stimuli/8A2.jpg,Stimuli/8A3.jpg,Stimuli/8B1.jpg,Stimuli/8B2.jpg,Stimuli/8B3.jpg,Stimuli/8C1.jpg,Stimuli/8C2.jpg,Stimuli/8C3.jpg,,,,,0,20,20,8,,,,,,,,1748.227208299999,None,1749.2276155,None,1755.227410200001,None,"[-0.377, 0.138]","[0.306, 0.255]","[0.066, -0.395]","[-0.378, -0.136]","[0.07, 0.393]","[0.304, -0.26]","[-0.2, 0.346]","[0.399, -0.003]","[-0.203, -0.347]",,9.441431639963412,17.691457839962823,26.67478643996219,"[-0.375, 0.026851851851851852, -0.19907407407407407]","[0.13425925925925927, 0.36574074074074076, -0.3148148148148148]","[1, 1, 1]","[0, 0, 0]","[0, 0, 0]","[9.428798100001586, 17.678420600001118, 26.661448000002565]",0.012223939960676944,26.67335023996202,['A1'],['B2'],['C3'],['salmon'],['blue'],['yellow'],1787.159713000001,None,8.0,3.4633143000028213,1787.159713000001,None,1808.7926396000003,None,10.0,2.498069099998247,1792.6147194000005,None,10.0,8.14763359999779,1800.575890600001,None,9.0,9.932034699999349,<function functionImportanceC at 0x000002AE1DD98510>,<function functionImportanceB at 0x000002AE17843E18>,<function functionImportanceA at 0x000002AE17843378>,,,7.0,2.498069099998247,3.0,3.014490300000034,3.0,5.497485299998516,<function functiondiffC at 0x000002AE1736FF28>,<function functiondiffA at 0x000002AE1DD981E0>,<function functiondiffB at 0x000002AE1736FB70>,,,,,1760.029986900001,1820.7423509,None,1824.2922658999996,None,1811.8758811000007,None,19,001,2022_Jul_19_1344,2leo,2021.2.3,60.02400960367167,
3,7,Plan your Sunday breakfast ,Stimuli/7A1.jpg,Stimuli/7A2.jpg,Stimuli/7A3.jpg,Stimuli/7B1.jpg,Stimuli/7B2.jpg,Stimuli/7B3.jpg,Stimuli/7C1.jpg,Stimuli/7C2.jpg,Stimuli/7C3.jpg,,,,,0,21,21,7,,,,,,,,1828.7916393999985,None,1829.7921332000005,None,1835.7917884999988,None,"[0.306, 0.255]","[0.066, -0.395]","[-0.377, 0.138]","[0.399, -0.003]","[-0.203, -0.347]","[-0.2, 0.346]","[0.07, 0.393]","[0.304, -0.26]","[-0.378, -0.136]",,10.497112529952574,20.697116329949495,26.263739629950578,"[0.07314814814814814, -0.20462962962962963, 0.30925925925925923]","[-0.34074074074074073, 0.32407407407407407, -0.2814814814814815]","[1, 1, 1]","[0, 0, 0]","[0, 0, 0]","[10.481447999998636, 20.6810985000011, 26.247567999998864]",0.015147929949307581,26.262466329950257,['A2'],['B3'],['C2'],['salmon'],['blue'],['yellow'],1868.5241634000013,None,9.0,3.312996500000736,1868.5241634000013,None,1880.390758999998,None,10.0,3.6985104999985197,1883.6402401000014,None,4.0,3.6815159999969183,1873.874151600001,None,10.0,6.698034799999732,<function functionImportanceB at 0x000002AE1DD989D8>,<function functionImportanceA at 0x000002AE1736FE18>,<function functionImportanceC at 0x000002AE17843BF8>,,,5.0,3.6985104999985197,-0.0,3.0142325999986497,3.0,4.264451700000791,<function functiondiffC at 0x000002AE1E2E6378>,<function functiondiffA at 0x000002AE1DD98268>,<function functiondiffB at 0x000002AE1DD988C8>,,,,,1841.8124669999997,1890.4745464000007,None,1893.6569033999986,None,1886.3736318999981,None,19,001,2022_Jul_19_1344,2leo,2021.2.3,60.02400960367167,
3,15,Plan your own Pasta for lunch,Stimuli/15A1.jpg,Stimuli/15A2.jpg,Stimuli/15A3.jpg,Stimuli/15B1.jpg,Stimuli/15B2.jpg,Stimuli/15B3.jpg,Stimuli/15C1.jpg,Stimuli/15C2.jpg,Stimuli/15C3.jpg,,,,,0,22,22,15,,,,,,,,1896.7739365000016,None,1897.7732604000012,None,1903.7732819000012,None,"[-0.378, -0.136]","[0.304, -0.26]","[0.07, 0.393]","[-0.377, 0.138]","[0.066, -0.395]","[0.306, 0.255]","[-0.2, 0.346]","[-0.203, -0.347]","[0.399, -0.003]",,6.1459418099912,34.362120409990894,33.82897730998957,"[-0.35648148148148145, 0.4203703703703704, 0.07685185185185185]","[-0.09814814814814815, 0.022222222222222223, -0.3490740740740741]","[1, 1, 1]","[0, 0, 0]","[0, 0, 0]","[6.139232000001357, 33.82156970000142, 34.355066899999656]",0.006296809988270979,34.3611681099901,['A1'],['B2'],['C3'],['salmon'],['yellow'],['blue'],1940.5554617999987,None,10.0,1.43017300000065,1940.5554617999987,None,1955.288592500001,None,5.0,2.7151407999990624,1942.7889034,None,8.0,10.414222700001119,1952.5385314999985,None,9.0,2.6486962999988464,<function functionImportanceC at 0x000002AE1E2E6488>,<function functionImportanceB at 0x000002AE1E2E6268>,<function functionImportanceA at 0x000002AE178436A8>,,,6.0,2.7151407999990624,2.0,1.9979834000005212,7.0,5.530750499998248,<function functiondiffB at 0x000002AE1DD987B8>,<function functiondiffC at 0x000002AE1DD98620>,<function functiondiffA at 0x000002AE1DD98EA0>,,,,,1905.731237600001,1968.2714917000012,None,1957.8552014999987,None,1963.5382600999983,None,19,001,2022_Jul_19_1344,2leo,2021.2.3,60.02400960367167,
3,6,Plan your wedding,Stimuli/6A1.jpg,Stimuli/6A2.jpg,Stimuli/6A3.jpg,Stimuli/6B1.jpg,Stimuli/6B2.jpg,Stimuli/6B3.jpg,Stimuli/6C1.jpg,Stimuli/6C2.jpg,Stimuli/6C3.jpg,,,,,0,23,23,6,,,,,,,,1969.7876733000012,None,1970.7880117999994,None,1976.7879272999999,None,"[-0.203, -0.347]","[-0.2, 0.346]","[0.399, -0.003]","[0.066, -0.395]","[-0.377, 0.138]","[0.306, 0.255]","[0.304, -0.26]","[-0.378, -0.136]","[0.07, 0.393]",,35.80992327995773,21.660732879958232,25.827593479960342,"[0.037037037037037035, 0.04814814814814815, -0.28425925925925927]","[-0.3592592592592593, 0.3388888888888889, -0.35833333333333334]","[1, 1, 1]","[0, 0, 0]","[0, 0, 0]","[21.65473969999948, 25.821216999996977, 35.8042260000002]",0.005305179958668305,35.809330279960705,['A1'],['B1'],['C3'],['blue'],['salmon'],['yellow'],2018.1698542999984,None,10.0,2.5470334999990882,2018.1698542999984,None,2021.9366517000017,None,10.0,7.015111299999262,2029.037062899999,None,8.0,6.3141062000031525,2035.769384799998,None,9.0,7.831682699998055,<function functionImportanceA at 0x000002AE1E2E68C8>,<function functionImportanceC at 0x000002AE1E2E6510>,<function functionImportanceB at 0x000002AE1E2E69D8>,,,0.0,7.015111299999262,9.0,5.79754469999898,-0.0,3.547879199999443,<function functiondiffB at 0x000002AE1DD98730>,<function functiondiffA at 0x000002AE1736F378>,<function functiondiffC at 0x000002AE1DD98C80>,,,,,1981.899523699998,2045.8360171999993,None,2042.3703930999982,None,2051.7358889999996,None,19,001,2022_Jul_19_1344,2leo,2021.2.3,60.02400960367167,
3,32,Plan how you want to relax after a workday,Stimuli/32A1.jpg,Stimuli/32A2.jpg,Stimuli/32A3.jpg,Stimuli/32B1.jpg,Stimuli/32B2.jpg,Stimuli/32B3.jpg,Stimuli/32C1.jpg,Stimuli/32C2.jpg,Stimuli/32C3.jpg,,,,,0,24,24,32,,,,,,,,2052.918634400001,None,2053.919364000001,None,2059.919023800001,None,"[-0.203, -0.347]","[-0.2, 0.346]","[0.399, -0.003]","[0.066, -0.395]","[-0.377, 0.138]","[0.306, 0.255]","[0.304, -0.26]","[-0.378, -0.136]","[0.07, 0.393]",,7.396871919980185,29.7110454199792,11.945567919978203,"[-0.18425925925925926, -0.4212962962962963, 0.062037037037037036]","[0.35, -0.12037037037037036, -0.3675925925925926]","[1, 1, 1]","[0, 0, 0]","[0, 0, 0]","[7.381432599999243, 11.930327599999146, 29.6962695000002]",0.014057319978746818,29.710235519978596,['A2'],['B1'],['C2'],['salmon'],['yellow'],['blue'],2093.151208799998,None,10.0,2.713919200003147,2093.151208799998,None,2097.067794399998,None,7.0,13.430911299998115,2109.4176192000014,None,8.0,4.731731600000785,2114.9673059999986,None,9.0,3.548298600002454,<function functionImportanceA at 0x000002AE1E2E6AE8>,<function functionImportanceC at 0x000002AE1E2E67B8>,<function functionImportanceB at 0x000002AE1E2E6400>,,,-0.0,13.430911299998115,2.0,3.8477630999987014,6.0,3.71458690000145,<function functiondiffA at 0x000002AE1DD98048>,<function functiondiffB at 0x000002AE1DD98D90>,<function functiondiffC at 0x000002AE1E2E6B70>,,,,,2062.987193699999,2118.017085299998,None,2121.7169827,None,2125.267240500001,None,19,001,2022_Jul_19_1344,2leo,2021.2.3,60.02400960367167,
3,0,Plan a barbecue,Stimuli/0A1.jpg,Stimuli/0A2.jpg,Stimuli/0A3.jpg,Stimuli/0B1.jpg,Stimuli/0B2.jpg,Stimuli/0B3.jpg,Stimuli/0C1.jpg,Stimuli/0C2.jpg,Stimuli/0C3.jpg,,,,,0,25,25,0,,,,,,,,2127.1665691000017,None,2128.1670667,None,2134.1669449,None,"[-0.203, -0.347]","[-0.2, 0.346]","[0.399, -0.003]","[0.066, -0.395]","[-0.377, 0.138]","[0.306, 0.255]","[0.304, -0.26]","[-0.378, -0.136]","[0.07, 0.393]",,25.828305369985173,35.96170296998389,7.212575969984755,"[0.08333333333333333, 0.43148148148148147, -0.362962962962963]","[0.3768518518518518, 0.06388888888888888, 0.14537037037037037]","[1, 1, 1]","[0, 0, 0]","[0, 0, 0]","[7.1971577999975125, 25.813357499999256, 35.946631399998296]",0.014315669985080604,35.9607231699847,['A3'],['B2'],['C3'],['yellow'],['salmon'],['blue'],2173.0655712000007,None,9.0,2.9133676000019477,2173.0655712000007,None,2184.9653887999993,None,8.0,6.314832200001547,2176.048898199999,None,3.0,7.530810500000371,2189.9486768999996,None,6.0,2.8650720000005094,<function functionImportanceC at 0x000002AE1E2E6620>,<function functionImportanceA at 0x000002AE1E2E60D0>,<function functionImportanceB at 0x000002AE1E2E66A8>,,,1.0,6.314832200001547,-0.0,4.081150599999091,8.0,4.798011099999712,<function functiondiffA at 0x000002AE1DD98598>,<function functiondiffB at 0x000002AE1DD98E18>,<function functiondiffC at 0x000002AE1E2E6730>,,,,,2136.648892099998,2193.1651139999994,None,2196.8651482999994,None,2201.6983519999994,None,19,001,2022_Jul_19_1344,2leo,2021.2.3,60.02400960367167,
3,26,Plan how to wash one round of your laundry ,Stimuli/26A1.jpg,Stimuli/26A2.jpg,Stimuli/26A3.jpg,Stimuli/26B1.jpg,Stimuli/26B2.jpg,Stimuli/26B3.jpg,Stimuli/26C1.jpg,Stimuli/26C2.jpg,Stimuli/26C3.jpg,,,,,0,26,26,26,,,,,,,,2204.7643953000006,None,2205.7648071000003,None,2211.7647847000007,None,"[-0.378, -0.136]","[0.07, 0.393]","[0.304, -0.26]","[-0.2, 0.346]","[0.399, -0.003]","[-0.203, -0.347]","[-0.377, 0.138]","[0.306, 0.255]","[0.066, -0.395]",,28.50646271000005,14.157264409997879,20.70739900999979,"[0.36944444444444446, -0.33611111111111114, -0.36666666666666664]","[-0.000925925925925926, 0.13148148148148148, -0.09907407407407408]","[1, 1, 1]","[0, 0, 0]","[0, 0, 0]","[14.153040700002748, 20.702994300001592, 28.50258030000259]",0.0034617099991010036,28.50598560999788,['A1'],['B2'],['C1'],['salmon'],['yellow'],['blue'],2241.8637383999994,None,10.0,2.8303840000007767,2241.8637383999994,None,2252.946976200001,None,10.0,4.931502500003262,2244.7470802999997,None,6.0,8.147929799997655,2257.8799771000013,None,2.0,5.681746099999145,<function functionImportanceC at 0x000002AE1E2E6BF8>,<function functionImportanceA at 0x000002AE17843730>,<function functionImportanceB at 0x000002AE178438C8>,,,2.0,4.931502500003262,2.0,3.6812571000009484,-0.0,2.43105800000194,<function functiondiffC at 0x000002AE1E2E62F0>,<function functiondiffB at 0x000002AE1E2E6E18>,<function functiondiffA at 0x000002AE1E2E6F28>,,,,,2212.8756894,2271.546455200001,None,2269.0965799000005,None,2263.5466110999987,None,19,001,2022_Jul_19_1344,2leo,2021.2.3,60.02400960367167,
3,38,Plan how you want to go for a run,Stimuli/38A1.jpg,Stimuli/38A2.jpg,Stimuli/38A3.jpg,Stimuli/38B1.jpg,Stimuli/38B2.jpg,Stimuli/38B3.jpg,Stimuli/38C1.jpg,Stimuli/38C2.jpg,Stimuli/38C3.jpg,,,,,0,27,27,38,,,,,,,,2274.7457743000014,None,2275.7460610999988,None,2281.746185600001,None,"[-0.377, 0.138]","[0.066, -0.395]","[0.306, 0.255]","[-0.2, 0.346]","[-0.203, -0.347]","[0.399, -0.003]","[-0.378, -0.136]","[0.304, -0.26]","[0.07, 0.393]",,13.258079059996817,18.191321859994787,9.208522859997174,"[0.2675925925925926, 0.022222222222222223, -0.2537037037037037]","[-0.225, -0.4, 0.337037037037037]","[1, 1, 1]","[0, 0, 0]","[0, 0, 0]","[9.203505400000722, 13.253606999998738, 18.186666900001]",0.0039697599968349095,18.190465559993754,['A2'],['B1'],['C2'],['salmon'],['blue'],['yellow'],2301.6118210999994,None,10.0,2.8140352000009443,2301.6118210999994,None,2311.279076499999,None,9.0,2.1483373000010033,2313.528590099999,None,8.0,2.6652453999995487,2304.4952583999984,None,5.0,6.763455399999657,<function functionImportanceB at 0x000002AE1E2E6840>,<function functionImportanceA at 0x000002AE17843488>,<function functionImportanceC at 0x000002AE1EB00840>,,,-0.0,2.1483373000010033,0.0,2.0648972999988473,2.0,8.413961099999142,<function functiondiffC at 0x000002AE1EB00620>,<function functiondiffB at 0x000002AE1E2E6048>,<function functiondiffA at 0x000002AE1E2E6950>,,,,,2282.941745699998,2327.2613644999983,None,2318.8285972000012,None,2316.1119026000015,None,19,001,2022_Jul_19_1344,2leo,2021.2.3,60.02400960367167,
3,21,Plan your sandwich for lunch,Stimuli/21A1.jpg,Stimuli/21A2.jpg,Stimuli/21A3.jpg,Stimuli/21B1.jpg,Stimuli/21B2.jpg,Stimuli/21B3.jpg,Stimuli/21C1.jpg,Stimuli/21C2.jpg,Stimuli/21C3.jpg,,,,,0,28,28,21,,,,,,,,2328.8443240999986,None,2329.8447331999996,None,2335.8447320000014,None,"[0.066, -0.395]","[0.306, 0.255]","[-0.377, 0.138]","[0.304, -0.26]","[0.07, 0.393]","[-0.378, -0.136]","[-0.203, -0.347]","[0.399, -0.003]","[-0.2, 0.346]",,15.800119839997933,12.016536039998755,23.416724239999894,"[0.11018518518518519, -0.4111111111111111, 0.37222222222222223]","[0.37777777777777777, 0.12129629629629629, 0.008333333333333333]","[1, 1, 1]","[0, 0, 0]","[0, 0, 0]","[11.999197400000412, 15.782885000000533, 23.39919000000009]",0.016507439999259077,23.41537973999948,['A3'],['B2'],['C2'],['blue'],['salmon'],['yellow'],2360.8437516999984,None,10.0,2.6635558000016317,2360.8437516999984,None,2371.6769418000003,None,10.0,3.014986600002885,2363.577088599999,None,9.0,8.09764770000038,2374.710224899998,None,6.0,2.398370699997031,<function functionImportanceC at 0x000002AE1EB00048>,<function functionImportanceA at 0x000002AE1E2E6EA0>,<function functionImportanceB at 0x000002AE1EB00268>,,,7.0,3.014986600002885,7.0,1.6480556999995315,2.0,3.0313115999997535,<function functiondiffC at 0x000002AE1E2E6A60>,<function functiondiffB at 0x000002AE1E2E6C80>,<function functiondiffA at 0x000002AE1E2E6D08>,,,,,2336.959679399999,2383.359730799999,None,2380.309928800001,None,2377.1100990999985,None,19,001,2022_Jul_19_1344,2leo,2021.2.3,60.02400960367167,
3,5,Plan a birthday party for your younger self when you turn eight,Stimuli/5A1.jpg,Stimuli/5A2.jpg,Stimuli/5A3.jpg,Stimuli/5B1.jpg,Stimuli/5B2.jpg,Stimuli/5B3.jpg,Stimuli/5C1.jpg,Stimuli/5C2.jpg,Stimuli/5C3.jpg,,,,,0,29,29,5,,,,,,,,2384.526101299998,None,2385.5263360999998,None,2391.5263952999994,None,"[-0.377, 0.138]","[0.306, 0.255]","[0.066, -0.395]","[-0.378, -0.136]","[0.07, 0.393]","[0.304, -0.26]","[-0.2, 0.346]","[0.399, -0.003]","[-0.203, -0.347]",,14.31470121995153,26.431443119949108,19.84822571995028,"[0.19166666666666668, 0.27314814814814814, 0.35648148148148145, 0.04537037037037037]","[0.2518518518518518, 0.2759259259259259, -0.03333333333333333, 0.3148148148148148]","[1, 1, 1, 1]","[0, 0, 0, 0]","[0, 0, 0, 0]","[13.79017059999751, 14.3067553999972, 19.83976529999927, 26.423232299999654]",0.007427219949022401,26.430501419948996,['A2'],['B2'],['C2'],['yellow'],['blue'],['salmon'],2424.158660099998,None,10.0,2.413554799997655,2424.158660099998,None,2439.4580897999986,None,7.0,5.315076999999292,2427.2587518,None,10.0,10.2312708999998,2443.7081566000015,None,4.0,7.0482454000011785,<function functionImportanceC at 0x000002AE1EB00730>,<function functionImportanceA at 0x000002AE1EB008C8>,<function functionImportanceB at 0x000002AE1EB00950>,,,8.0,5.315076999999292,-0.0,2.8312046000028204,3.0,3.514739800000825,<function functiondiffC at 0x000002AE1EB00D08>,<function functiondiffB at 0x000002AE1DD98F28>,<function functiondiffA at 0x000002AE1DD98A60>,,,,,2397.2722275000015,2457.2411261999987,None,2453.2746235999984,None,2449.3747081,None,19,001,2022_Jul_19_1344,2leo,2021.2.3,60.02400960367167,
3,11,Plan a hike in nature on a free day,Stimuli/11A1.jpg,Stimuli/11A2.jpg,Stimuli/11A3.jpg,Stimuli/11B1.jpg,Stimuli/11B2.jpg,Stimuli/11B3.jpg,Stimuli/11C1.jpg,Stimuli/11C2.jpg,Stimuli/11C3.jpg,,,,,0,30,30,11,,,,,,,,2474.140710399999,None,2475.140548299998,None,2481.1404594999985,None,"[0.07, 0.393]","[0.304, -0.26]","[-0.378, -0.136]","[0.306, 0.255]","[0.066, -0.395]","[-0.377, 0.138]","[0.399, -0.003]","[-0.203, -0.347]","[-0.2, 0.346]",,12.927007890000823,2.127443490000587,5.561414289997629,"[0.03425925925925926, -0.2222222222222222, 0.021296296296296296]","[-0.41759259259259257, 0.33055555555555555, 0.3675925925925926]","[1, 1, 1]","[0, 0, 0]","[0, 0, 0]","[2.113156200000958, 5.546821199997794, 12.913105600000563]",0.01349809000021196,12.926417889997538,['A1'],['B2'],['C3'],['salmon'],['blue'],['yellow'],2495.7398906000017,None,10.0,2.0304900000010093,2495.7398906000017,None,2497.9067007000012,None,10.0,6.647578000000067,2508.0397030999993,None,5.0,1.5982533999995212,2504.5564975000016,None,7.0,3.4983022999986133,<function functionImportanceA at 0x000002AE1EB006A8>,<function functionImportanceB at 0x000002AE1EB00488>,<function functionImportanceC at 0x000002AE1DD98D08>,,,-0.0,6.647578000000067,3.0,2.7811799999981304,-0.0,2.08099890000085,<function functiondiffA at 0x000002AE1DD98400>,<function functiondiffB at 0x000002AE1EB00B70>,<function functiondiffC at 0x000002AE1E2E6598>,,,,,2482.3437846000015,2509.6063840999996,None,2512.4063681000007,None,2514.5061308000004,None,19,001,2022_Jul_19_1344,2leo,2021.2.3,60.02400960367167,
3,20,Plan a tea party with your friends,Stimuli/20A1.jpg,Stimuli/20A2.jpg,Stimuli/20A3.jpg,Stimuli/20B1.jpg,Stimuli/20B2.jpg,Stimuli/20B3.jpg,Stimuli/20C1.jpg,Stimuli/20C2.jpg,Stimuli/20C3.jpg,,,,,0,31,31,20,,,,,,,,2516.3891981999986,None,2517.389331300001,None,2523.3894726,None,"[0.07, 0.393]","[0.304, -0.26]","[-0.378, -0.136]","[0.399, -0.003]","[-0.203, -0.347]","[-0.2, 0.346]","[0.306, 0.255]","[0.066, -0.395]","[-0.377, 0.138]",,9.71157828997093,13.696450889972766,22.094857289972424,"[0.31666666666666665, -0.16944444444444445, 0.26666666666666666]","[-0.21944444444444444, 0.337037037037037, 0.19444444444444445]","[1, 1, 1]","[0, 0, 0]","[0, 0, 0]","[9.696947199998249, 13.681495699998777, 22.079806499998085]",0.014126289970590733,22.093869089971122,['A2'],['B3'],['C1'],['blue'],['yellow'],['salmon'],2549.4883100000006,None,9.0,2.5305568000003404,2549.4883100000006,None,2558.5215265000006,None,9.0,2.1152103999993415,2552.0884977999995,None,8.0,6.396213899999566,2563.021574899998,None,6.0,5.198449400002573,<function functionImportanceC at 0x000002AE1F34B840>,<function functionImportanceA at 0x000002AE1EB00598>,<function functionImportanceB at 0x000002AE17843AE8>,,,8.0,2.1152103999993415,0.0,4.94766349999918,5.0,1.8143297999995411,<function functiondiffA at 0x000002AE1EB00C80>,<function functiondiffC at 0x000002AE1EB00E18>,<function functiondiffB at 0x000002AE1EB00F28>,,,,,2526.9410132999983,2565.8220335000005,None,2574.4878554999996,None,2570.7878476000005,None,19,001,2022_Jul_19_1344,2leo,2021.2.3,60.02400960367167,
3,35,Plan how you want to do your grocery shopping ,Stimuli/35A1.jpg,Stimuli/35A2.jpg,Stimuli/35A3.jpg,Stimuli/35B1.jpg,Stimuli/35B2.jpg,Stimuli/35B3.jpg,Stimuli/35C1.jpg,Stimuli/35C2.jpg,Stimuli/35C3.jpg,,,,,0,32,32,35,,,,,,,,2575.2711543000005,None,2576.2713097999986,None,2582.271033699999,None,"[0.066, -0.395]","[0.306, 0.255]","[-0.377, 0.138]","[0.304, -0.26]","[0.07, 0.393]","[-0.378, -0.136]","[-0.203, -0.347]","[0.399, -0.003]","[-0.2, 0.346]",,8.678753019998112,20.445197619999817,3.129386719996546,"[0.45092592592592595, 0.2898148148148148, 0.05740740740740741]","[0.030555555555555555, 0.2935185185185185, 0.3592592592592593]","[1, 1, 1]","[0, 0, 0]","[0, 0, 0]","[3.1389867999969283, 8.672377399998368, 20.43853390000004]",0.0058725199996843,20.444151319999946,['A2'],['B2'],['C2'],['blue'],['yellow'],['salmon'],2604.420113699998,None,10.0,4.147027600000001,2604.420113699998,None,2624.1366844000004,None,6.0,2.4651812000010977,2608.6369161000002,None,8.0,4.097864999999729,2612.886682600001,None,9.0,11.348106199999165,<function functionImportanceC at 0x000002AE1F34B268>,<function functionImportanceB at 0x000002AE1F34B7B8>,<function functionImportanceA at 0x000002AE17843B70>,,,-0.0,2.4651812000010977,5.0,1.6973426999975345,7.0,1.9647955000000366,<function functiondiffC at 0x000002AE1F34B8C8>,<function functiondiffB at 0x000002AE1EB00400>,<function functiondiffA at 0x000002AE1E2E61E0>,,,,,2583.4974962999986,2630.8696176999983,None,2628.902989800001,None,2626.569797600001,None,19,001,2022_Jul_19_1344,2leo,2021.2.3,60.02400960367167,
3,23,Plan a city trip,Stimuli/23A1.jpg,Stimuli/23A2.jpg,Stimuli/23A3.jpg,Stimuli/23B1.jpg,Stimuli/23B2.jpg,Stimuli/23B3.jpg,Stimuli/23C1.jpg,Stimuli/23C2.jpg,Stimuli/23C3.jpg,,,,,0,33,33,23,,,,,,,,2632.0864712000002,None,2633.086404400001,None,2639.086168900001,None,"[0.07, 0.393]","[-0.378, -0.136]","[0.304, -0.26]","[0.399, -0.003]","[-0.2, 0.346]","[-0.203, -0.347]","[0.306, 0.255]","[-0.377, 0.138]","[0.066, -0.395]",,11.108229569999821,30.60779316999833,5.191888769997604,"[0.24537037037037038, -0.3453703703703704, 0.45555555555555555]","[0.22685185185185186, -0.125, -0.017592592592592594]","[1, 1, 1]","[0, 0, 0]","[0, 0, 0]","[5.178588099999615, 11.095380400001886, 30.594776400001138]",0.012345269999059383,30.60693276999882,['A2'],['B1'],['C1'],['salmon'],['yellow'],['blue'],2671.3016405000017,None,9.0,2.8969999000000826,2671.3016405000017,None,2674.2517855000006,None,7.0,11.914565199997014,2686.2347655000012,None,6.0,2.998392599998624,2689.2179824999985,None,9.0,3.4486508999980288,<function functionImportanceA at 0x000002AE1F34B730>,<function functionImportanceC at 0x000002AE1F34B0D0>,<function functionImportanceB at 0x000002AE1F34B598>,,,0.0,11.914565199997014,8.0,2.3978376999984903,9.0,3.262990600000194,<function functiondiffB at 0x000002AE1F34BE18>,<function functiondiffA at 0x000002AE1E2E6158>,<function functiondiffC at 0x000002AE1F34B488>,,,,,2640.2225985000005,2695.934297,None,2692.6513081999983,None,2698.3511905000014,None,19,001,2022_Jul_19_1344,2leo,2021.2.3,60.02400960367167,
3,40,Plan to see a sports event ,Stimuli/40A1.jpg,Stimuli/40A2.jpg,Stimuli/40A3.jpg,Stimuli/40B1.jpg,Stimuli/40B2.jpg,Stimuli/40B3.jpg,Stimuli/40C1.jpg,Stimuli/40C2.jpg,Stimuli/40C3.jpg,,,,,0,34,34,40,,,,,,,,2699.8349209000007,None,2700.8342711000005,None,2706.8342519,None,"[0.399, -0.003]","[-0.203, -0.347]","[-0.2, 0.346]","[0.07, 0.393]","[0.304, -0.26]","[-0.378, -0.136]","[0.306, 0.255]","[0.066, -0.395]","[-0.377, 0.138]",,3.717583639998338,27.383756039998843,18.28422563999993,"[-0.16574074074074074, 0.0, 0.32037037037037036]","[0.33055555555555555, -0.38425925925925924, -0.1925925925925926]","[1, 1, 1]","[0, 0, 0]","[0, 0, 0]","[3.7167512999985775, 18.28299329999936, 27.38276489999771]",0.00020863999816356227,27.382886240000516,['A3'],['B2'],['C2'],['salmon'],['yellow'],['blue'],2735.9999609000006,None,6.0,2.6301099000011163,2735.9999609000006,None,2748.7164411000012,None,3.0,7.66472259999864,2738.7000885000016,None,0.0,3.0147441000008257,2741.8666436999993,None,6.0,6.947852299999795,<function functionImportanceC at 0x000002AE1F1460D0>,<function functionImportanceB at 0x000002AE1F34B510>,<function functionImportanceA at 0x000002AE1F34B378>,,,6.0,7.66472259999864,0.0,2.1481175999979314,1.0,3.347691399998439,<function functiondiffC at 0x000002AE1F34B400>,<function functiondiffB at 0x000002AE1F34B048>,<function functiondiffA at 0x000002AE1F34B620>,,,,,2708.1332503000012,2764.3826711,None,2761.0494131000014,None,2756.3495741000006,None,19,001,2022_Jul_19_1344,2leo,2021.2.3,60.02400960367167,
3,22,Plan a beach day with your friends,Stimuli/22A1.jpg,Stimuli/22A2.jpg,Stimuli/22A3.jpg,Stimuli/22B1.jpg,Stimuli/22B2.jpg,Stimuli/22B3.jpg,Stimuli/22C1.jpg,Stimuli/22C2.jpg,Stimuli/22C3.jpg,,,,,0,35,35,22,,,,,,,,2766.0499311999993,None,2767.049018400001,None,2773.0491914000013,None,"[0.399, -0.003]","[-0.203, -0.347]","[-0.2, 0.346]","[0.306, 0.255]","[0.066, -0.395]","[-0.377, 0.138]","[0.07, 0.393]","[0.304, -0.26]","[-0.378, -0.136]",,21.295151540001825,5.095549839999876,13.895643440002459,"[0.26666666666666666, 0.3277777777777778, -0.16296296296296298]","[0.2111111111111111, -0.25833333333333336, 0.2898148148148148]","[1, 1, 1]","[0, 0, 0]","[0, 0, 0]","[5.088966600000276, 13.888708600003156, 21.288667300003]",0.0058899399991787504,21.2942967400013,['A3'],['B1'],['C2'],['salmon'],['blue'],['yellow'],2795.9483102999984,None,10.0,2.06311260000075,2795.9483102999984,None,2803.631587,None,4.0,2.4654402999985905,2798.0982541999983,None,9.0,5.531054899998708,2806.1148593,None,10.0,1.7476204999984475,<function functionImportanceC at 0x000002AE1F146950>,<function functionImportanceA at 0x000002AE1EB007B8>,<function functionImportanceB at 0x000002AE1F34BD08>,,,0.0,2.4654402999985905,0.0,1.814805800000613,2.0,2.398181600001408,<function functiondiffC at 0x000002AE1F146730>,<function functiondiffB at 0x000002AE1F34BEA0>,<function functiondiffA at 0x000002AE1EB00158>,,,,,2774.175176500001,2813.0976529,None,2810.681250999998,None,2807.8481666000007,None,19,001,2022_Jul_19_1344,2leo,2021.2.3,60.02400960367167,
3,41,Plan how you want to have dinner tonight ,Stimuli/41A1.jpg,Stimuli/41A2.jpg,Stimuli/41A3.jpg,Stimuli/41B1.jpg,Stimuli/41B2.jpg,Stimuli/41B3.jpg,Stimuli/41C1.jpg,Stimuli/41C2.jpg,Stimuli/41C3.jpg,,,,,0,36,36,41,,,,,,,,2814.4318961999998,None,2815.4313471999994,None,2821.4311106999994,None,"[0.304, -0.26]","[0.07, 0.393]","[-0.378, -0.136]","[0.066, -0.395]","[0.306, 0.255]","[-0.377, 0.138]","[-0.203, -0.347]","[0.399, -0.003]","[-0.2, 0.346]",,9.302681899993331,7.2534623999927135,15.48649459999433,"[-0.4425925925925926, -0.4064814814814815, -0.21203703703703702]","[0.1361111111111111, -0.14074074074074075, 0.36666666666666664]","[1, 1, 1]","[0, 0, 0]","[0, 0, 0]","[7.242995399999927, 9.292440199998964, 15.475785700000415]",0.009624099991924595,15.485205199995107,['A3'],['B3'],['C3'],['salmon'],['blue'],['yellow'],2838.7137178999983,None,10.0,2.0136000999991666,2838.7137178999983,None,2848.9302399000007,None,10.0,2.8981471000006422,2851.9969944000004,None,5.0,4.11510890000136,2840.798296000001,None,9.0,8.09747249999782,<function functionImportanceB at 0x000002AE1F1466A8>,<function functionImportanceA at 0x000002AE1EB00D90>,<function functionImportanceC at 0x000002AE1F1461E0>,,,3.0,2.8981471000006422,1.0,4.081194899998081,0.0,2.014766899999813,<function functiondiffA at 0x000002AE1F34BBF8>,<function functiondiffB at 0x000002AE1F146400>,<function functiondiffC at 0x000002AE1F146048>,,,,,2822.7538730999986,2855.9300071,None,2860.030058100001,None,2862.096722800001,None,19,001,2022_Jul_19_1344,2leo,2021.2.3,60.02400960367167,
3,44,Plan a party at your place,Stimuli/44A1.jpg,Stimuli/44A2.jpg,Stimuli/44A3.jpg,Stimuli/44B1.jpg,Stimuli/44B2.jpg,Stimuli/44B3.jpg,Stimuli/44C1.jpg,Stimuli/44C2.jpg,Stimuli/44C3.jpg,,,,,0,37,37,44,,,,,,,,2864.1809490999985,None,2865.179868799998,None,2871.179719399999,None,"[-0.2, 0.346]","[0.399, -0.003]","[-0.203, -0.347]","[-0.378, -0.136]","[0.07, 0.393]","[0.304, -0.26]","[-0.377, 0.138]","[0.306, 0.255]","[0.066, -0.395]",,17.666231800001697,5.7667877999992925,14.016968600000837,"[-0.3472222222222222, 0.06481481481481481, 0.40370370370370373]","[-0.11944444444444445, -0.37592592592592594, -0.010185185185185186]","[1, 1, 1]","[0, 0, 0]","[0, 0, 0]","[5.749600600000122, 13.999376299998403, 17.649255799999082]",0.01642329999958747,17.665442099998472,['A2'],['B1'],['C3'],['salmon'],['yellow'],['blue'],2890.4621509999997,None,9.0,2.3804194999975152,2890.4621509999997,None,2903.2455056,None,6.0,4.898352200001682,2899.1119473,None,6.0,4.131884900001751,2892.9124599999996,None,8.0,6.180854799997178,<function functionImportanceB at 0x000002AE1F146BF8>,<function functionImportanceC at 0x000002AE1F146840>,<function functionImportanceA at 0x000002AE1F146C80>,,,-0.0,4.898352200001682,7.0,2.3146730000007665,4.0,2.2480907999997726,<function functiondiffC at 0x000002AE1F146488>,<function functiondiffB at 0x000002AE1F146378>,<function functiondiffA at 0x000002AE1F146510>,,,,,2872.3283712999983,2914.0450977,None,2911.7950605000005,None,2908.145350499999,None,19,001,2022_Jul_19_1344,2leo,2021.2.3,60.02400960367167,
3,28,Plan a one-week camping trip in Spain,Stimuli/28A1.jpg,Stimuli/28A2.jpg,Stimuli/28A3.jpg,Stimuli/28B1.jpg,Stimuli/28B2.jpg,Stimuli/28B3.jpg,Stimuli/28C1.jpg,Stimuli/28C2.jpg,Stimuli/28C3.jpg,,,,,0,38,38,28,,,,,,,,2915.8795331,None,2916.8948180000007,None,2922.8949968999987,None,"[0.07, 0.393]","[-0.378, -0.136]","[0.304, -0.26]","[0.306, 0.255]","[-0.377, 0.138]","[0.066, -0.395]","[0.399, -0.003]","[-0.2, 0.346]","[-0.203, -0.347]",,28.44096800999614,16.67507700999704,23.508278809997137,"[-0.4027777777777778, 0.3685185185185185, 0.34074074074074073]","[0.1675925925925926, -0.010185185185185186, -0.225]","[1, 1, 1]","[0, 0, 0]","[0, 0, 0]","[16.67017610000039, 23.503197599999112, 28.43627320000087]",0.0041135099963867106,28.440273009997327,['A3'],['B2'],['C1'],['yellow'],['salmon'],['blue'],2952.9271881999994,None,10.0,2.047141900002316,2952.9271881999994,None,2964.7104088999986,None,8.0,4.6315362000023015,2955.0273739000004,None,7.0,9.647576399998798,2969.3603016000015,None,9.0,2.498523100002785,<function functionImportanceC at 0x000002AE1F146620>,<function functionImportanceA at 0x000002AE1F34BC80>,<function functionImportanceB at 0x000002AE1F146AE8>,,,3.0,4.6315362000023015,2.0,2.8979436999979953,0.0,3.331229400002485,<function functiondiffB at 0x000002AE1F146598>,<function functiondiffC at 0x000002AE1F146158>,<function functiondiffA at 0x000002AE1F1469D8>,,,,,2924.006277299999,2977.0099740000005,None,2971.8435683999996,None,2975.1933847,None,19,001,2022_Jul_19_1344,2leo,2021.2.3,60.02400960367167,
3,2,Plan which ingredients you want to use for cooking dinner today,Stimuli/2A1.jpg,Stimuli/2A2.jpg,Stimuli/2A3.jpg,Stimuli/2B1.jpg,Stimuli/2B2.jpg,Stimuli/2B3.jpg,Stimuli/2C1.jpg,Stimuli/2C2.jpg,Stimuli/2C3.jpg,,,,,0,39,39,2,,,,,,,,2979.427758599999,None,2980.4433357999987,None,2986.4431938000016,None,"[0.07, 0.393]","[-0.378, -0.136]","[0.304, -0.26]","[0.306, 0.255]","[-0.377, 0.138]","[0.066, -0.395]","[0.399, -0.003]","[-0.2, 0.346]","[-0.203, -0.347]",,19.055364499949064,25.904210699947726,10.087966699949902,"[0.41944444444444445, 0.11203703703703703, 0.2916666666666667]","[0.009259259259259259, 0.3648148148148148, 0.18333333333333332]","[1, 1, 1]","[0, 0, 0]","[0, 0, 0]","[10.084975900001155, 19.05289460000131, 25.901450200002728]",0.002068799949483946,25.90328549994956,['A1'],['B1'],['C1'],['blue'],['salmon'],['yellow'],3018.8253431999983,None,10.0,2.013587899997219,3018.8253431999983,None,3021.9935625,None,8.0,8.064554099997622,3034.9751598000003,None,10.0,2.098471299999801,3032.2414882999983,None,5.0,5.381841699996585,<function functionImportanceA at 0x000002AE1F34BAE8>,<function functionImportanceB at 0x000002AE1F34BD90>,<function functionImportanceC at 0x000002AE1F146B70>,,,8.0,8.064554099997622,3.0,2.8313306999989436,3.0,6.830934499997966,<function functiondiffB at 0x000002AE1F146A60>,<function functiondiffC at 0x000002AE1F897048>,<function functiondiffA at 0x000002AE1F146E18>,,,,,2992.4602735000008,3045.6414345999983,None,3037.2917836999986,None,3043.4914911000014,None,19,001,2022_Jul_19_1344,2leo,2021.2.3,60.02400960367167,
3,18,Plan your Saturday night ,Stimuli/18A1.jpg,Stimuli/18A2.jpg,Stimuli/18A3.jpg,Stimuli/18B1.jpg,Stimuli/18B2.jpg,Stimuli/18B3.jpg,Stimuli/18C1.jpg,Stimuli/18C2.jpg,Stimuli/18C3.jpg,,,,,0,40,40,18,,,,,,,,3047.6766357999986,None,3048.691214300001,None,3054.6913939000005,None,"[0.07, 0.393]","[0.304, -0.26]","[-0.378, -0.136]","[0.306, 0.255]","[0.066, -0.395]","[-0.377, 0.138]","[0.399, -0.003]","[-0.203, -0.347]","[-0.2, 0.346]",,21.35272363999684,14.936434039998858,27.169396839995898,"[0.03981481481481482, -0.3333333333333333, -0.19074074074074074]","[-0.38425925925925924, -0.19166666666666668, -0.31203703703703706]","[1, 1, 1]","[0, 0, 0]","[0, 0, 0]","[14.934263099999953, 21.35073630000261, 27.167012000001705]",0.0013706399986403994,27.16823113999635,['A3'],['B2'],['C2'],['blue'],['salmon'],['yellow'],3083.473527599999,None,10.0,4.16422650000095,3083.473527599999,None,3092.823519999998,None,9.0,1.9324476000001596,3094.7566641999983,None,2.0,2.2486605000012787,3087.756895800001,None,8.0,5.064214699999866,<function functionImportanceB at 0x000002AE1F34B950>,<function functionImportanceA at 0x000002AE1F34B158>,<function functionImportanceC at 0x000002AE1F34B6A8>,,,0.0,1.9324476000001596,7.0,4.614335799997207,3.0,1.3980086999981722,<function functiondiffA at 0x000002AE1DD98378>,<function functiondiffC at 0x000002AE1F146268>,<function functiondiffB at 0x000002AE1F34B1E0>,,,,,3055.8224292999985,3096.973539800001,None,3103.889922800001,None,3101.606545300001,None,19,001,2022_Jul_19_1344,2leo,2021.2.3,60.02400960367167,
3,14,Plan your own Pizza for dinner,Stimuli/14A1.jpg,Stimuli/14A2.jpg,Stimuli/14A3.jpg,Stimuli/14B1.jpg,Stimuli/14B2.jpg,Stimuli/14B3.jpg,Stimuli/14C1.jpg,Stimuli/14C2.jpg,Stimuli/14C3.jpg,,,,,0,41,41,14,,,,,,,,3104.8247279999996,None,3105.839523999999,None,3111.8396350000003,None,"[-0.2, 0.346]","[-0.203, -0.347]","[0.399, -0.003]","[-0.377, 0.138]","[0.066, -0.395]","[0.306, 0.255]","[-0.378, -0.136]","[0.304, -0.26]","[0.07, 0.393]",,26.072864969995862,32.40659356999822,7.191380869997374,"[0.046296296296296294, -0.20092592592592592, -0.3055555555555556]","[0.32685185185185184, -0.32314814814814813, 0.12314814814814815]","[1, 1, 1]","[0, 0, 0]","[0, 0, 0]","[7.186949499999173, 26.06902009999976, 32.40255199999956]",0.003346469995449297,32.40557546999844,['A2'],['B1'],['C3'],['salmon'],['yellow'],['blue'],3145.8717712,None,10.0,2.913447399998404,3145.8717712,None,3148.8553066999993,None,7.0,6.547840200000792,3155.4051505999996,None,8.0,2.615230800001882,3158.088238799999,None,9.0,2.3317446999972162,<function functionImportanceA at 0x000002AE1F146D90>,<function functionImportanceC at 0x000002AE1E2E6D90>,<function functionImportanceB at 0x000002AE1F146D08>,,,0.0,6.547840200000792,2.0,4.181250800000271,3.0,3.0641132999990077,<function functiondiffA at 0x000002AE1EB00EA0>,<function functiondiffB at 0x000002AE1EB009D8>,<function functiondiffC at 0x000002AE1EB002F0>,,,,,3112.983115700001,3160.3715539000004,None,3164.5881590999998,None,3167.654800299999,None,19,001,2022_Jul_19_1344,2leo,2021.2.3,60.02400960367167,
3,43,Plan your dream house,Stimuli/43A1.jpg,Stimuli/43A2.jpg,Stimuli/43A3.jpg,Stimuli/43B1.jpg,Stimuli/43B2.jpg,Stimuli/43B3.jpg,Stimuli/43C1.jpg,Stimuli/43C2.jpg,Stimuli/43C3.jpg,,,,,0,42,42,43,,,,,,,,3169.723124699998,None,3170.7378137999985,None,3176.7375194999986,None,"[-0.377, 0.138]","[0.306, 0.255]","[0.066, -0.395]","[-0.2, 0.346]","[0.399, -0.003]","[-0.203, -0.347]","[-0.378, -0.136]","[0.07, 0.393]","[0.304, -0.26]",,22.890902139995887,16.974810039995646,29.99135283999567,"[-0.25462962962962965, 0.2935185185185185, -0.31666666666666665]","[-0.3148148148148148, 0.2037037037037037, -0.06666666666666667]","[1, 1, 1]","[0, 0, 0]","[0, 0, 0]","[16.969932599997264, 22.886300099999062, 29.986415399998805]",0.004004939994047163,29.990112939995015,['A2'],['B3'],['C1'],['blue'],['salmon'],['yellow'],3208.3366859999987,None,8.0,2.2301588999980595,3208.3366859999987,None,3225.119855699999,None,7.0,1.7318661999997857,3210.6202744,None,8.0,9.414408199998434,3220.0699053999997,None,7.0,4.998427200000151,<function functionImportanceC at 0x000002AE1F1468C8>,<function functionImportanceB at 0x000002AE1F146F28>,<function functionImportanceA at 0x000002AE1F1467B8>,,,10.0,1.7318661999997857,3.0,2.7478121999993164,2.0,1.7480938999979116,<function functiondiffC at 0x000002AE1F8979D8>,<function functiondiffA at 0x000002AE1F34B9D8>,<function functiondiffB at 0x000002AE1EB00BF8>,,,,,3177.8644553999984,3229.586274699999,None,3232.3695665999985,None,3226.803136899998,None,19,001,2022_Jul_19_1344,2leo,2021.2.3,60.02400960367167,
3,24,Plan your Monday morning on a workday ,Stimuli/24A1.jpg,Stimuli/24A2.jpg,Stimuli/24A3.jpg,Stimuli/24B1.jpg,Stimuli/24B2.jpg,Stimuli/24B3.jpg,Stimuli/24C1.jpg,Stimuli/24C2.jpg,Stimuli/24C3.jpg,,,,,0,43,43,24,,,,,,,,3233.6380245,None,3234.6527061000015,None,3240.6527462999984,None,"[0.066, -0.395]","[0.306, 0.255]","[-0.377, 0.138]","[-0.203, -0.347]","[0.399, -0.003]","[-0.2, 0.346]","[0.304, -0.26]","[0.07, 0.393]","[-0.378, -0.136]",,23.467271739998978,32.71719863999897,20.334620940000605,"[0.10185185185185185, 0.07314814814814814, 0.39166666666666666]","[0.4675925925925926, -0.3611111111111111, -0.03611111111111111]","[1, 1, 1]","[0, 0, 0]","[0, 0, 0]","[20.32485110000198, 23.45814380000229, 32.707724900003086]",0.008727839998755371,32.716249339999194,['A1'],['B2'],['C2'],['blue'],['salmon'],['yellow'],3274.968114200001,None,10.0,2.7306405999988783,3274.968114200001,None,3286.0513565,None,10.0,1.9316217999985383,3277.751569100001,None,7.0,5.147739799998817,3282.9181159,None,10.0,3.1149003999998968,<function functionImportanceC at 0x000002AE1F897A60>,<function functionImportanceB at 0x000002AE1F897AE8>,<function functionImportanceA at 0x000002AE1F1462F0>,,,0.0,1.9316217999985383,-0.0,2.114146799998707,9.0,4.264369799999258,<function functiondiffC at 0x000002AE1F897950>,<function functiondiffA at 0x000002AE1EB00378>,<function functiondiffB at 0x000002AE17843048>,,,,,3241.7757733,3290.768041799998,None,3292.9011677000017,None,3287.984677100001,None,19,001,2022_Jul_19_1344,2leo,2021.2.3,60.02400960367167,
3,4,Plan a game night at your place,Stimuli/4A1.jpg,Stimuli/4A2.jpg,Stimuli/4A3.jpg,Stimuli/4B1.jpg,Stimuli/4B2.jpg,Stimuli/4B3.jpg,Stimuli/4C1.jpg,Stimuli/4C2.jpg,Stimuli/4C3.jpg,,,,,0,44,44,4,,,,,,,,3296.6867351,None,3297.701088499998,None,3303.7010169999994,None,"[-0.377, 0.138]","[0.306, 0.255]","[0.066, -0.395]","[-0.378, -0.136]","[0.07, 0.393]","[0.304, -0.26]","[-0.2, 0.346]","[0.399, -0.003]","[-0.203, -0.347]",,11.660301189975144,2.6276085899771715,13.077337789978628,"[-0.39537037037037037, 0.027777777777777776, -0.2388888888888889]","[-0.17314814814814813, -0.37592592592592594, -0.3111111111111111]","[1, 1, 1]","[0, 0, 0]","[0, 0, 0]","[2.6219123999981093, 11.65468189999956, 13.071002399999998]",0.005023989975597942,13.07587238997803,['A3'],['B1'],['C3'],['yellow'],['salmon'],['blue'],3320.6336176000004,None,10.0,2.0290688999994018,3320.6336176000004,None,3330.166732900001,None,7.0,5.4483421000004455,3324.0336835000016,None,10.0,4.8975657999981195,3327.6169855000007,None,10.0,1.5317154000003939,<function functionImportanceC at 0x000002AE1F8971E0>,<function functionImportanceB at 0x000002AE1F897400>,<function functionImportanceA at 0x000002AE1F897840>,,,-0.0,5.4483421000004455,3.0,3.1811731000016152,1.0,4.414439299998776,<function functiondiffB at 0x000002AE1EB001E0>,<function functiondiffC at 0x000002AE1F34BF28>,<function functiondiffA at 0x000002AE1F146EA0>,,,,,3307.097184800001,3341.6830991999996,None,3334.6333529000003,None,3339.4166117999994,None,19,001,2022_Jul_19_1344,2leo,2021.2.3,60.02400960367167,
