Condition,N_Scenario,written_scenario,ImageA1,ImageA2,ImageA3,ImageB1,ImageB2,ImageB3,ImageC1,ImageC2,ImageC3,trials_2.thisRepN,trials_2.thisTrialN,trials_2.thisN,trials_2.thisIndex,trial.thisRepN,trial.thisTrialN,trial.thisN,trial.thisIndex,button_2.started,button_2.stopped,button_2.numClicks,button_2.timesOn,button_2.timesOff,text.started,text.stopped,fixationcross1_started,fixationcross1_stopped,Scenario_started,Scenario_stopped,fixationcross2_started,fixationcross2_stopped,A1pos,A2pos,A3pos,B1pos,B2pos,B3pos,C1pos,C2pos,C3pos,﻿Imagesdecision_started,decisiontimeA,decisiontimeB,decisiontimeC,mouse_x,mouse_y,mouse_leftButton,mouse_midButton,mouse_rightButton,mouse_time,mouse_started,mouse_stopped,clicked_optionA,clicked_optionB,clicked_optionC,colour_category_A,colour_category_B,colour_category_C,question_confidence_started,question_confidence_stopped,slider_confidence_response,slider_confidence_rt,slider_confidence_started,slider_confidence_stopped,question_valueB_started,question_valueB_stopped,slider_valueB_response,slider_valueB_rt,question_valueA_started,question_valueA_stopped,slider_valueA_response,slider_valueA_rt,question_valueC_started,question_valueC_stopped,slider_valueC_response,slider_valueC_rt,Importance_First,Importance_Second,Importance_Third,question_diff_started,question_diff_stopped,slider_diffB_response,slider_diffB_rt,slider_diffA_response,slider_diffA_rt,slider_diffC_response,slider_diffC_rt,diff_First,diff_Second,diff_Third,button_3_started,button_3_stopped,text_2_started,text_2_stopped,Imagesdecision_started,question_diffA_started,question_diffA_stopped,question_diffC_started,question_diffC_stopped,question_diffB_started,question_diffB_stopped,participant,session,date,expName,psychopyVersion,frameRate,
3,2,Plan a party to celebrate your birthday,Stimuli/2A1t.jpg,Stimuli/2A2t.jpg,Stimuli/2A3t.jpg,Stimuli/2B1t.jpg,Stimuli/2B2t.jpg,Stimuli/2B3t.jpg,Stimuli/2C1t.jpg,Stimuli/2C2t.jpg,Stimuli/2C3t.jpg,0,0,0,0,,,,,33.179185199998756,None,1,[1.7941811000018788],[1.7941962000004423],33.179185199998756,None,115.40807929999937,None,116.41146479999952,None,122.41132469999866,None,"[0.304, -0.26]","[0.07, 0.393]","[-0.378, -0.136]","[-0.203, -0.347]","[0.399, -0.003]","[-0.2, 0.346]","[0.066, -0.395]","[0.306, 0.255]","[-0.377, 0.138]",126.45404779999808,12.975790919990686,10.109582219993172,16.776627219991497,"[-0.19814814814814816, 0.38333333333333336, 0.3509259259259259]","[-0.3787037037037037, -0.26666666666666666, 0.19537037037037036]","[1, 1, 1]","[0, 0, 0]","[0, 0, 0]","[10.103494700000738, 12.969967299999553, 16.770171899999696]",0.005396919990744209,16.775243319993024,['A1'],['B1'],['C2'],['blue'],['yellow'],['salmon'],143.69387579999966,None,7.0,5.913501400002133,143.69387579999966,None,151.26032990000022,None,8.0,12.831300800000463,163.82871079999677,None,6.0,5.998009399998409,168.56011339999895,None,9.0,3.6650434999974095,<function functionImportanceBt at 0x000001FBA8048D08>,<function functionImportanceAt at 0x000001FB9E66F268>,<function functionImportanceCt at 0x000001FB9AED1E18>,182.20972149999943,None,1.0,6.848085900001024,3.0,5.998009399998409,0.0,5.764252500001021,<function functiondiffBt at 0x000001FBA825D510>,<function functiondiffAt at 0x000001FBA825DE18>,<function functiondiffCt at 0x000001FBA825DB70>,,,,,,,,,,,,25,001,2022_Jul_20_1408,2leo,2021.2.3,60.545588407345754,
3,3,Plan one week of vacation,Stimuli/3A1t.jpg,Stimuli/3A2t.jpg,Stimuli/3A3t.jpg,Stimuli/3B1t.jpg,Stimuli/3B2t.jpg,Stimuli/3B3t.jpg,Stimuli/3C1t.jpg,Stimuli/3C2t.jpg,Stimuli/3C3t.jpg,0,1,1,1,,,,,,,,,,,,187.49289319999662,None,188.49291879999873,None,194.49275359999956,None,"[0.306, 0.255]","[0.066, -0.395]","[-0.377, 0.138]","[0.399, -0.003]","[-0.203, -0.347]","[-0.2, 0.346]","[0.07, 0.393]","[0.304, -0.26]","[-0.378, -0.136]",200.62245459999758,36.519545779981854,35.11989137998171,30.070360079982493,"[-0.3675925925925926, -0.18425925925925926, 0.008333333333333333]","[-0.1287037037037037, -0.3907407407407407, -0.38796296296296295]","[1, 1, 1]","[0, 0, 0]","[0, 0, 0]","[30.052835399998003, 35.102668799998355, 36.50261339999997]",0.016412979981396347,36.51888977998169,['A2'],['B2'],['C3'],['blue'],['yellow'],['salmon'],237.5914245999993,None,6.0,2.697779400001309,237.5914245999993,None,247.62461039999835,None,9.0,11.664270699999179,259.5243746999986,None,3.0,7.198380199999519,241.82450619999872,None,8.0,5.547827499998675,<function functionImportanceCt at 0x000001FBA8048E18>,<function functionImportanceBt at 0x000001FBA8048BF8>,<function functionImportanceAt at 0x000001FB97D691E0>,272.3740199999993,None,1.0,3.2144208000026993,7.0,7.198380199999519,1.0,3.6472265999982483,<function functiondiffCt at 0x000001FBA7789F28>,<function functiondiffBt at 0x000001FBA8006EA0>,<function functiondiffAt at 0x000001FBA8048D90>,,,,,,,,,,,,25,001,2022_Jul_20_1408,2leo,2021.2.3,60.545588407345754,
3,40,Plan to see a sports event ,Stimuli/40A1.jpg,Stimuli/40A2.jpg,Stimuli/40A3.jpg,Stimuli/40B1.jpg,Stimuli/40B2.jpg,Stimuli/40B3.jpg,Stimuli/40C1.jpg,Stimuli/40C2.jpg,Stimuli/40C3.jpg,,,,,0,0,0,40,,,,,,,,360.0030994999979,None,360.9884650999993,None,366.9883459999983,None,"[0.304, -0.26]","[-0.378, -0.136]","[0.07, 0.393]","[-0.203, -0.347]","[-0.2, 0.346]","[0.399, -0.003]","[0.066, -0.395]","[-0.377, 0.138]","[0.306, 0.255]",,18.793278619996272,28.143433619996358,19.377331019997655,"[-0.3333333333333333, -0.34074074074074073, 0.4027777777777778]","[-0.08888888888888889, 0.1787037037037037, 0.040740740740740744]","[1, 1, 1]","[0, 0, 0]","[0, 0, 0]","[18.781503000001976, 19.365048200001183, 28.13129990000016]",0.011265019998973003,28.14247671999692,['A2'],['B3'],['C2'],['blue'],['salmon'],['yellow'],396.9873062999977,None,2.0,2.8622806999992463,396.9873062999977,None,400.1040114999996,None,2.0,4.380747600000177,406.67026789999727,None,7.0,4.847913900001004,404.3705332999998,None,2.0,2.2481608999987657,<function functionImportanceB at 0x000001FBA8451488>,<function functionImportanceC at 0x000001FBA8451C80>,<function functionImportanceA at 0x000001FBA825D378>,,,8.0,1.5639943000023777,3.0,4.382045999998809,8.0,4.847913900001004,<function functiondiffA at 0x000001FBA825D730>,<function functiondiffC at 0x000001FBA825D950>,<function functiondiffB at 0x000001FBA825D2F0>,275.0073009999978,None,275.0073009999978,None,368.37369529999705,411.4203830999977,None,415.8201298999993,None,418.8868919999986,None,25,001,2022_Jul_20_1408,2leo,2021.2.3,60.545588407345754,
3,41,Plan how you want to have dinner tonight ,Stimuli/41A1.jpg,Stimuli/41A2.jpg,Stimuli/41A3.jpg,Stimuli/41B1.jpg,Stimuli/41B2.jpg,Stimuli/41B3.jpg,Stimuli/41C1.jpg,Stimuli/41C2.jpg,Stimuli/41C3.jpg,,,,,0,1,1,41,,,,,,,,419.93678969999746,None,420.9367334999988,None,426.9367588999994,None,"[0.07, 0.393]","[-0.378, -0.136]","[0.304, -0.26]","[0.306, 0.255]","[-0.377, 0.138]","[0.066, -0.395]","[0.399, -0.003]","[-0.2, 0.346]","[-0.203, -0.347]",,12.358233560000372,15.874996660000761,17.325317259997973,"[0.31296296296296294, 0.12314814814814815, -0.16018518518518518]","[-0.23055555555555557, -0.3398148148148148, -0.337037037037037]","[1, 1, 1]","[0, 0, 0]","[0, 0, 0]","[12.355477599998267, 15.87201069999719, 17.322181999999884]",0.0020613599990610965,17.323704559999896,['A3'],['B3'],['C3'],['yellow'],['blue'],['salmon'],446.1025867999997,None,8.0,2.863614300000336,446.1025867999997,None,452.13588209999944,None,6.0,4.448198299996875,449.06934909999836,None,7.0,3.064370300002338,456.7527171999973,None,1.0,5.3150568999990355,<function functionImportanceA at 0x000001FBA8451BF8>,<function functionImportanceB at 0x000001FBA8451730>,<function functionImportanceC at 0x000001FBA8451620>,,,-0.0,3.6809167999999772,2.0,3.0644633999982034,6.0,3.064370300002338,<function functiondiffB at 0x000001FBA84511E0>,<function functiondiffC at 0x000001FBA8451D90>,<function functiondiffA at 0x000001FBA84518C8>,,,,,428.29647419999674,468.9023739999975,None,465.61903769999844,None,461.8858522999981,None,25,001,2022_Jul_20_1408,2leo,2021.2.3,60.545588407345754,
3,3,Plan a movie night with a friend,Stimuli/3A1.jpg,Stimuli/3A2.jpg,Stimuli/3A3.jpg,Stimuli/3B1.jpg,Stimuli/3B2.jpg,Stimuli/3B3.jpg,Stimuli/3C1.jpg,Stimuli/3C2.jpg,Stimuli/3C3.jpg,,,,,0,2,2,3,,,,,,,,471.48529249999774,None,472.4853110999975,None,478.4854490999969,None,"[-0.2, 0.346]","[-0.203, -0.347]","[0.399, -0.003]","[-0.377, 0.138]","[0.066, -0.395]","[0.306, 0.255]","[-0.378, -0.136]","[0.304, -0.26]","[0.07, 0.393]",,23.320290259987814,12.437596259987913,18.254251959988324,"[0.3712962962962963, 0.3314814814814815, 0.42685185185185187]","[0.2759259259259259, -0.275, 0.012037037037037037]","[1, 1, 1]","[0, 0, 0]","[0, 0, 0]","[12.42345209999985, 18.239995500000077, 23.306417700001475]",0.01324865999049507,23.319591659990692,['A3'],['B3'],['C2'],['salmon'],['blue'],['yellow'],505.8510592999992,None,8.0,3.697026800000458,505.8510592999992,None,514.634417199999,None,7.0,2.798034200000984,516.7176156999994,None,7.0,2.515131600001041,511.3511277999969,None,9.0,4.264516500003083,<function functionImportanceC at 0x000001FBA8451B70>,<function functionImportanceB at 0x000001FBA8451378>,<function functionImportanceA at 0x000001FBA825D1E0>,,,0.0,5.1973512999975355,2.0,2.497833099998388,0.0,2.515131600001041,<function functiondiffB at 0x000001FBA825DC80>,<function functiondiffA at 0x000001FBA825D7B8>,<function functiondiffC at 0x000001FBA8451950>,,,,,482.07800799999677,524.4341895999969,None,527.3340589,None,519.6009045999999,None,25,001,2022_Jul_20_1408,2leo,2021.2.3,60.545588407345754,
3,21,Plan your sandwich for lunch,Stimuli/21A1.jpg,Stimuli/21A2.jpg,Stimuli/21A3.jpg,Stimuli/21B1.jpg,Stimuli/21B2.jpg,Stimuli/21B3.jpg,Stimuli/21C1.jpg,Stimuli/21C2.jpg,Stimuli/21C3.jpg,,,,,0,3,3,21,,,,,,,,529.0171155999997,None,530.0173079999986,None,536.0171717999983,None,"[-0.377, 0.138]","[0.306, 0.255]","[0.066, -0.395]","[-0.2, 0.346]","[0.399, -0.003]","[-0.203, -0.347]","[-0.378, -0.136]","[0.07, 0.393]","[0.304, -0.26]",,4.348829480000859,9.615331480003078,10.848980980001215,"[0.30925925925925923, -0.23333333333333334, 0.0962962962962963]","[0.2824074074074074, -0.33240740740740743, 0.40370370370370373]","[1, 1, 1]","[0, 0, 0]","[0, 0, 0]","[4.341746100002638, 9.607876199999737, 10.84138940000048]",0.00658538000061526,10.847702080001909,['A2'],['B3'],['C2'],['blue'],['salmon'],['yellow'],548.5167325999973,None,10.0,1.7468301000008069,548.5167325999973,None,556.8666580999998,None,10.0,2.331376400001318,553.6166501999978,None,6.0,3.198446700000204,550.383173299997,None,10.0,3.26430469999832,<function functionImportanceC at 0x000001FBA8451EA0>,<function functionImportanceA at 0x000001FBA825DF28>,<function functionImportanceB at 0x000001FBA825D158>,,,0.0,1.7976823000026343,4.0,3.7977296999997634,-0.0,3.198446700000204,<function functiondiffC at 0x000001FBA825D598>,<function functiondiffB at 0x000001FBA825DAE8>,<function functiondiffA at 0x000001FBA8451AE8>,,,,,537.189424799999,563.349757699998,None,559.1499089999998,None,561.5331399999995,None,25,001,2022_Jul_20_1408,2leo,2021.2.3,60.545588407345754,
3,1,Plan how to study for an exam,Stimuli/1A1.jpg,Stimuli/1A2.jpg,Stimuli/1A3.jpg,Stimuli/1B1.jpg,Stimuli/1B2.jpg,Stimuli/1B3.jpg,Stimuli/1C1.jpg,Stimuli/1C2.jpg,Stimuli/1C3.jpg,,,,,0,4,4,1,,,,,,,,566.666128599998,None,567.6661309999981,None,573.6661213999978,None,"[0.399, -0.003]","[-0.2, 0.346]","[-0.203, -0.347]","[0.07, 0.393]","[-0.378, -0.136]","[0.304, -0.26]","[0.306, 0.255]","[-0.377, 0.138]","[0.066, -0.395]",,11.046565759999794,5.230312159997993,11.613747859999421,"[0.1111111111111111, -0.17314814814814813, 0.27870370370370373]","[0.39444444444444443, 0.34814814814814815, 0.262037037037037]","[1, 1, 1]","[0, 0, 0]","[0, 0, 0]","[5.223647200000414, 11.040069999999105, 11.60682739999902]",0.005995159997837618,11.612484059998678,['A2'],['B1'],['C1'],['blue'],['yellow'],['salmon'],586.8657093999973,None,10.0,2.0137505999991845,586.8657093999973,None,588.949217399997,None,10.0,1.9978564999983064,593.7489139999998,None,10.0,2.182139599997754,590.9325348999992,None,10.0,2.765123599998333,<function functionImportanceB at 0x000001FB805BCBF8>,<function functionImportanceC at 0x000001FB805BC598>,<function functionImportanceA at 0x000001FBA825D840>,,,0.0,2.0811934000012116,-0.0,2.1813627000010456,-0.0,2.182139599997754,<function functiondiffC at 0x000001FB805BC7B8>,<function functiondiffA at 0x000001FBA8451D08>,<function functiondiffB at 0x000001FBA825D268>,,,,,574.7747296999987,602.1487326999995,None,595.8988991999977,None,604.3487265999975,None,25,001,2022_Jul_20_1408,2leo,2021.2.3,60.545588407345754,
3,4,Plan a game night at your place,Stimuli/4A1.jpg,Stimuli/4A2.jpg,Stimuli/4A3.jpg,Stimuli/4B1.jpg,Stimuli/4B2.jpg,Stimuli/4B3.jpg,Stimuli/4C1.jpg,Stimuli/4C2.jpg,Stimuli/4C3.jpg,,,,,0,5,5,4,,,,,,,,605.9484479999992,None,606.9486371999992,None,612.9485980999998,None,"[0.306, 0.255]","[-0.377, 0.138]","[0.066, -0.395]","[0.07, 0.393]","[-0.378, -0.136]","[0.304, -0.26]","[0.399, -0.003]","[-0.2, 0.346]","[-0.203, -0.347]",,13.066461879992858,7.366749779990641,14.31704467999225,"[0.11388888888888889, -0.36574074074074076, -0.19722222222222222]","[0.38425925925925924, 0.12037037037037036, -0.2953703703703704]","[1, 1, 1]","[0, 0, 0]","[0, 0, 0]","[7.3623484000017925, 13.062224799999967, 14.31221960000039]",0.003704179991473211,14.315652679990308,['A2'],['B1'],['C3'],['yellow'],['salmon'],['blue'],631.1476067999974,None,9.0,1.5138076000002911,631.1476067999974,None,632.6975513999969,None,1.0,3.3312772999997833,643.1643502999977,None,8.0,3.115409099998942,637.3811097999969,None,7.0,6.081677599999239,<function functionImportanceB at 0x000001FB805BC0D0>,<function functionImportanceC at 0x000001FB805BCE18>,<function functionImportanceA at 0x000001FB805BCF28>,,,7.0,2.9144206999990274,1.0,10.563907200001267,2.0,3.115409099998942,<function functiondiffB at 0x000001FB805BCB70>,<function functiondiffA at 0x000001FB805BCD90>,<function functiondiffC at 0x000001FB805BC048>,,,,,616.3687996999979,648.5307704999977,None,659.1640673000002,None,645.2809791999971,None,25,001,2022_Jul_20_1408,2leo,2021.2.3,60.545588407345754,
3,6,Plan your wedding,Stimuli/6A1.jpg,Stimuli/6A2.jpg,Stimuli/6A3.jpg,Stimuli/6B1.jpg,Stimuli/6B2.jpg,Stimuli/6B3.jpg,Stimuli/6C1.jpg,Stimuli/6C2.jpg,Stimuli/6C3.jpg,,,,,0,6,6,6,,,,,,,,661.5470104999986,None,662.5473270999973,None,668.5472224999976,None,"[0.07, 0.393]","[-0.378, -0.136]","[0.304, -0.26]","[0.306, 0.255]","[-0.377, 0.138]","[0.066, -0.395]","[0.399, -0.003]","[-0.2, 0.346]","[-0.203, -0.347]",,10.219129379984224,9.036159379986202,15.002571879984316,"[0.3212962962962963, 0.05277777777777778, -0.13055555555555556]","[0.2462962962962963, 0.3972222222222222, 0.35]","[1, 1, 1]","[0, 0, 0]","[0, 0, 0]","[9.023336500002188, 10.20645499999955, 14.989308500000334]",0.01214377998621785,15.001427379986126,['A1'],['B1'],['C2'],['blue'],['yellow'],['salmon'],689.229493699997,None,4.0,2.330028599997604,689.229493699997,None,700.8794559999988,None,8.0,3.781122799999139,692.812661699998,None,7.0,4.4477785999988555,697.3817586999976,None,8.0,3.1150371999974595,<function functionImportanceA at 0x000001FBA8451840>,<function functionImportanceC at 0x000001FB805BC6A8>,<function functionImportanceB at 0x000001FB805BC1E0>,,,1.0,3.3647745000016585,2.0,2.014116499998636,3.0,4.4477785999988555,<function functiondiffA at 0x000001FB805BC950>,<function functiondiffC at 0x000001FB805BC840>,<function functiondiffB at 0x000001FB805BC268>,,,,,673.7732534999996,703.3129367000001,None,705.4124792000002,None,707.8960681999997,None,25,001,2022_Jul_20_1408,2leo,2021.2.3,60.545588407345754,
3,27,Plan what festival to visit with your friends,Stimuli/27A1.jpg,Stimuli/27A2.jpg,Stimuli/27A3.jpg,Stimuli/27B1.jpg,Stimuli/27B2.jpg,Stimuli/27B3.jpg,Stimuli/27C1.jpg,Stimuli/27C2.jpg,Stimuli/27C3.jpg,,,,,0,7,7,27,,,,,,,,710.3624068999998,None,711.3625066999994,None,717.3625909000002,None,"[-0.378, -0.136]","[0.07, 0.393]","[0.304, -0.26]","[-0.377, 0.138]","[0.306, 0.255]","[0.066, -0.395]","[-0.2, 0.346]","[0.399, -0.003]","[-0.203, -0.347]",,15.375048800004151,17.924777000003814,8.775322600002255,"[0.4222222222222222, 0.2898148148148148, -0.30092592592592593]","[-0.001851851851851852, -0.2759259259259259, 0.14537037037037037]","[1, 1, 1]","[0, 0, 0]","[0, 0, 0]","[8.770968900000298, 15.371182099999714, 17.92086940000081]",0.0032162000024982262,17.923949700005323,['A3'],['B1'],['C2'],['yellow'],['salmon'],['blue'],736.9284322999993,None,8.0,1.6805301000022155,736.9284322999993,None,740.8977784999988,None,8.0,1.9985880999993242,742.8950404999996,None,8.0,2.2820820000015374,738.711895299999,None,8.0,2.1646440000004077,<function functionImportanceC at 0x000001FB805BC620>,<function functionImportanceB at 0x000001FBA825D620>,<function functionImportanceA at 0x000001FBA8451E18>,,,2.0,1.8312936000002082,3.0,2.114470900000015,3.0,2.2820820000015374,<function functiondiffC at 0x000001FB805BC730>,<function functiondiffA at 0x000001FB805BC9D8>,<function functiondiffB at 0x000001FB805BC488>,,,,,718.5243129999981,748.3949670999973,None,745.1450268999979,None,750.528161299997,None,25,001,2022_Jul_20_1408,2leo,2021.2.3,60.545588407345754,
3,23,Plan a city trip,Stimuli/23A1.jpg,Stimuli/23A2.jpg,Stimuli/23A3.jpg,Stimuli/23B1.jpg,Stimuli/23B2.jpg,Stimuli/23B3.jpg,Stimuli/23C1.jpg,Stimuli/23C2.jpg,Stimuli/23C3.jpg,,,,,0,8,8,23,,,,,,,,751.8779486999993,None,752.8780774999977,None,758.8781172999988,None,"[-0.377, 0.138]","[0.306, 0.255]","[0.066, -0.395]","[-0.378, -0.136]","[0.07, 0.393]","[0.304, -0.26]","[-0.2, 0.346]","[0.399, -0.003]","[-0.203, -0.347]",,6.708311179998418,3.95860778000133,12.875482979998196,"[-0.34074074074074073, 0.30462962962962964, 0.058333333333333334, 0.2722222222222222, 0.4074074074074074]","[-0.1648148148148148, 0.2601851851851852, 0.42685185185185187, -0.20925925925925926, -0.011111111111111112]","[1, 1, 1, 1, 1]","[0, 0, 0, 0, 0]","[0, 0, 0, 0, 0]","[3.9462960999990173, 6.696250100001635, 9.529605799998535, 10.6797516000006, 12.862908800001605]",0.01153798000086681,12.874138579998544,['A2'],['B1'],['C2'],['yellow'],['salmon'],['blue'],773.3941698999988,None,7.0,1.8137962000000698,773.3941698999988,None,778.9778764999974,None,7.0,2.848342599998432,775.2609834999967,None,5.0,3.6811903999987408,781.8775007999975,None,10.0,2.0990344999991066,<function functionImportanceA at 0x000001FBA8451598>,<function functionImportanceB at 0x000001FB80433048>,<function functionImportanceC at 0x000001FB80433268>,,,2.0,3.0310623000004853,4.0,6.7484543999999005,-0.0,3.6811903999987408,<function functiondiffC at 0x000001FB804339D8>,<function functiondiffA at 0x000001FB805BCEA0>,<function functiondiffB at 0x000001FB805BC378>,,,,,760.045127399997,786.0773262999974,None,783.9273852999977,None,792.8437521999986,None,25,001,2022_Jul_20_1408,2leo,2021.2.3,60.545588407345754,
3,2,Plan which ingredients you want to use for cooking dinner today,Stimuli/2A1.jpg,Stimuli/2A2.jpg,Stimuli/2A3.jpg,Stimuli/2B1.jpg,Stimuli/2B2.jpg,Stimuli/2B3.jpg,Stimuli/2C1.jpg,Stimuli/2C2.jpg,Stimuli/2C3.jpg,,,,,0,9,9,2,,,,,,,,795.393541399997,None,796.3936011999976,None,802.3934350999989,None,"[0.304, -0.26]","[-0.378, -0.136]","[0.07, 0.393]","[-0.203, -0.347]","[-0.2, 0.346]","[0.399, -0.003]","[0.066, -0.395]","[-0.377, 0.138]","[0.306, 0.255]",,10.752849719981896,3.6367186199822754,10.253406519979762,"[-0.14814814814814814, 0.05462962962962963, 0.3175925925925926]","[-0.31203703703703706, -0.32407407407407407, -0.18518518518518517]","[1, 1, 1]","[0, 0, 0]","[0, 0, 0]","[3.628223399999115, 10.24468540000089, 10.744639000000461]",0.007796519981638994,10.752136819981388,['A1'],['B1'],['C1'],['salmon'],['blue'],['yellow'],819.7096137999979,None,8.0,1.4297855999975582,819.7096137999979,None,824.4762053999984,None,1.0,7.264447800000198,829.5925274999972,None,7.0,3.1982717999999295,832.3093688999979,None,10.0,3.5818508000011207,<function functionImportanceB at 0x000001FB804336A8>,<function functionImportanceA at 0x000001FB80433400>,<function functionImportanceC at 0x000001FB80433378>,,,2.0,2.4311178999996628,3.0,3.2811174999987998,3.0,3.1982717999999295,<function functiondiffA at 0x000001FB805BC400>,<function functiondiffB at 0x000001FB805BCA60>,<function functiondiffC at 0x000001FB80433BF8>,,,,,808.500101499998,835.6093819999987,None,841.1924906999993,None,839.4092066999983,None,25,001,2022_Jul_20_1408,2leo,2021.2.3,60.545588407345754,
3,16,Plan a delicious cake for the birthday of a friend,Stimuli/16A1.jpg,Stimuli/16A2.jpg,Stimuli/16A3.jpg,Stimuli/16B1.jpg,Stimuli/16B2.jpg,Stimuli/16B3.jpg,Stimuli/16C1.jpg,Stimuli/16C2.jpg,Stimuli/16C3.jpg,,,,,0,10,10,16,,,,,,,,842.1255984999989,None,843.1258501999982,None,849.1257489999989,None,"[-0.2, 0.346]","[0.399, -0.003]","[-0.203, -0.347]","[-0.377, 0.138]","[0.306, 0.255]","[0.066, -0.395]","[-0.378, -0.136]","[0.07, 0.393]","[0.304, -0.26]",,9.628989299999375,9.097550200000114,8.313038699998287,"[-0.31574074074074077, -0.3472222222222222, 0.39351851851851855]","[-0.14351851851851852, 0.16296296296296298, -0.019444444444444445]","[1, 1, 1]","[0, 0, 0]","[0, 0, 0]","[8.308522399998765, 9.093265700001211, 9.624875699999393]",0.003580399999918882,9.62836569999854,['A2'],['B1'],['C1'],['salmon'],['blue'],['yellow'],860.7252098999998,None,10.0,2.11390350000147,860.7252098999998,None,866.441755099997,None,9.0,2.3164876000009826,868.5084974999991,None,9.0,2.096459500000492,862.991801199998,None,9.0,3.2146748999984993,<function functionImportanceC at 0x000001FBA84519D8>,<function functionImportanceB at 0x000001FBA825D8C8>,<function functionImportanceA at 0x000001FBA825DD08>,,,1.0,4.315018200002669,1.0,1.8971769999989192,1.0,2.096459500000492,<function functiondiffB at 0x000001FB805BC8C8>,<function functiondiffA at 0x000001FBA84516A8>,<function functiondiffC at 0x000001FB80433488>,,,,,850.6319313999993,874.8917208999992,None,876.8250020999985,None,870.6084714999997,None,25,001,2022_Jul_20_1408,2leo,2021.2.3,60.545588407345754,
3,34,Plan what car you want to buy,Stimuli/34A1.jpg,Stimuli/34A2.jpg,Stimuli/34A3.jpg,Stimuli/34B1.jpg,Stimuli/34B2.jpg,Stimuli/34B3.jpg,Stimuli/34C1.jpg,Stimuli/34C2.jpg,Stimuli/34C3.jpg,,,,,0,11,11,34,,,,,,,,878.9746599999999,None,879.9747644999989,None,885.9748428999992,None,"[-0.378, -0.136]","[0.07, 0.393]","[0.304, -0.26]","[-0.2, 0.346]","[0.399, -0.003]","[-0.203, -0.347]","[-0.377, 0.138]","[0.306, 0.255]","[0.066, -0.395]",,8.811099239992473,9.861468139992212,11.811847739991208,"[-0.3351851851851852, 0.4212962962962963, 0.2935185185185185]","[-0.12777777777777777, -0.058333333333333334, 0.28703703703703703]","[1, 1, 1]","[0, 0, 0]","[0, 0, 0]","[8.807881200002157, 9.857841100001679, 11.808028900002682]",0.0028041399928042665,11.810580939993088,['A1'],['B2'],['C2'],['yellow'],['salmon'],['blue'],901.374199599999,None,9.0,1.4302907000019331,901.374199599999,None,903.8257490999968,None,2.0,3.997728799997276,907.8907513999984,None,8.0,3.2483173000000534,910.1571356999993,None,8.0,2.2648170000029495,<function functionImportanceB at 0x000001FB804337B8>,<function functionImportanceA at 0x000001FB80433510>,<function functionImportanceC at 0x000001FB80433620>,,,7.0,3.0981131000007736,0.0,2.3475306000000273,1.0,3.2483173000000534,<function functiondiffA at 0x000001FBA8451268>,<function functiondiffC at 0x000001FB805BC158>,<function functiondiffB at 0x000001FB805BCD08>,,,,,889.0981623999978,912.7573699999994,None,914.7737953999967,None,916.5572214999993,None,25,001,2022_Jul_20_1408,2leo,2021.2.3,60.545588407345754,
3,37,Plan your cleaning routine ,Stimuli/37A1.jpg,Stimuli/37A2.jpg,Stimuli/37A3.jpg,Stimuli/37B1.jpg,Stimuli/37B2.jpg,Stimuli/37B3.jpg,Stimuli/37C1.jpg,Stimuli/37C2.jpg,Stimuli/37C3.jpg,,,,,0,12,12,37,,,,,,,,918.9236396999986,None,919.9238431999984,None,925.9237843999981,None,"[0.066, -0.395]","[-0.377, 0.138]","[0.306, 0.255]","[0.304, -0.26]","[-0.378, -0.136]","[0.07, 0.393]","[-0.203, -0.347]","[-0.2, 0.346]","[0.399, -0.003]",,10.219149919998017,18.668839619997016,14.536429619998671,"[-0.33055555555555555, -0.1388888888888889, 0.3296296296296296]","[0.1425925925925926, 0.3509259259259259, -0.20833333333333334]","[1, 1, 1]","[0, 0, 0]","[0, 0, 0]","[10.218324199999188, 14.534994099998585, 18.667859099998168]",0.0003176199970766902,18.66801371999827,['A2'],['B1'],['C2'],['yellow'],['salmon'],['blue'],946.2228727999973,None,9.0,1.4638029999987339,946.2228727999973,None,951.3061081999986,None,9.0,2.0819155000026512,947.789367399997,None,9.0,1.7647060999988753,949.5228652999976,None,9.0,1.7316022000013618,<function functionImportanceA at 0x000001FB804330D0>,<function functionImportanceC at 0x000001FB80433A60>,<function functionImportanceB at 0x000001FB80433C80>,,,-0.0,1.7473691000013787,0.0,1.9142164000004414,0.0,1.7647060999988753,<function functiondiffA at 0x000001FB80433E18>,<function functiondiffC at 0x000001FB804331E0>,<function functiondiffB at 0x000001FB80433598>,,,,,927.0705564999989,953.3395646999998,None,955.2895917999995,None,956.9726948999996,None,25,001,2022_Jul_20_1408,2leo,2021.2.3,60.545588407345754,
3,36,Plan your shopping for new clothing,Stimuli/36A1.jpg,Stimuli/36A2.jpg,Stimuli/36A3.jpg,Stimuli/36B1.jpg,Stimuli/36B2.jpg,Stimuli/36B3.jpg,Stimuli/36C1.jpg,Stimuli/36C2.jpg,Stimuli/36C3.jpg,,,,,0,13,13,36,,,,,,,,958.2391508999972,None,959.2395043999968,None,965.2393233999974,None,"[0.304, -0.26]","[-0.378, -0.136]","[0.07, 0.393]","[-0.203, -0.347]","[-0.2, 0.346]","[0.399, -0.003]","[0.066, -0.395]","[-0.377, 0.138]","[0.306, 0.255]",,11.072993419998966,13.80634531999749,1.4071907199977431,"[-0.32037037037037036, -0.40185185185185185, -0.17962962962962964]","[0.10925925925925926, -0.16111111111111112, -0.3277777777777778]","[1, 1, 1]","[0, 0, 0]","[0, 0, 0]","[1.395607000002201, 11.061898300002213, 13.794935400001123]",0.010579319998214487,13.805336919998808,['A2'],['B1'],['C2'],['blue'],['salmon'],['yellow'],980.6555771999992,None,6.0,1.9144438999974227,980.6555771999992,None,990.5387137999969,None,7.0,1.8984034999994037,982.6389136999969,None,7.0,2.914398600001732,985.5721619999968,None,-0.0,4.965229299999919,<function functionImportanceA at 0x000001FB805BC2F0>,<function functionImportanceC at 0x000001FB80433B70>,<function functionImportanceB at 0x000001FB804338C8>,,,2.0,2.8976507000006677,2.0,1.9641860000010638,1.0,2.914398600001732,<function functiondiffC at 0x000001FB80433730>,<function functiondiffB at 0x000001FB80433158>,<function functiondiffA at 0x000001FB80433950>,,,,,966.3753264999978,997.3050109999967,None,992.4385143999971,None,994.405243899997,None,25,001,2022_Jul_20_1408,2leo,2021.2.3,60.545588407345754,
3,29,Plan a day in the mountains ,Stimuli/29A1.jpg,Stimuli/29A2.jpg,Stimuli/29A3.jpg,Stimuli/29B1.jpg,Stimuli/29B2.jpg,Stimuli/29B3.jpg,Stimuli/29C1.jpg,Stimuli/29C2.jpg,Stimuli/29C3.jpg,,,,,0,14,14,29,,,,,,,,998.8046192000002,None,999.8048892999977,None,1005.8050659999972,None,"[0.07, 0.393]","[-0.378, -0.136]","[0.304, -0.26]","[0.306, 0.255]","[-0.377, 0.138]","[0.066, -0.395]","[0.399, -0.003]","[-0.2, 0.346]","[-0.203, -0.347]",,13.164470759998949,11.281341459998657,16.148058459999447,"[-0.3111111111111111, -0.32314814814814813, 0.48703703703703705]","[0.12777777777777777, -0.1425925925925926, -0.013888888888888888]","[1, 1, 1]","[0, 0, 0]","[0, 0, 0]","[11.2742769999968, 13.157779899996967, 16.140950599998177]",0.006187859999045031,16.146905260000494,['A2'],['B2'],['C1'],['yellow'],['blue'],['salmon'],1023.6208918999982,None,0.0,1.5634140000001935,1023.6208918999982,None,1030.5709809,None,2.0,3.8485994000002393,1028.0708090999979,None,7.0,2.5482630000005884,1025.2543770999982,None,2.0,2.747770900001342,<function functionImportanceC at 0x000001FB8081F488>,<function functionImportanceA at 0x000001FB805BCAE8>,<function functionImportanceB at 0x000001FB8081F730>,,,7.0,2.0645581999997376,5.0,1.5812148999975761,7.0,2.5482630000005884,<function functiondiffB at 0x000001FB80433D08>,<function functiondiffC at 0x000001FB805BC510>,<function functiondiffA at 0x000001FB80433F28>,,,,,1006.9951154999981,1037.9375271999997,None,1036.4874423,None,1034.4207971999967,None,25,001,2022_Jul_20_1408,2leo,2021.2.3,60.545588407345754,
3,5,Plan a birthday party for your younger self when you turn eight,Stimuli/5A1.jpg,Stimuli/5A2.jpg,Stimuli/5A3.jpg,Stimuli/5B1.jpg,Stimuli/5B2.jpg,Stimuli/5B3.jpg,Stimuli/5C1.jpg,Stimuli/5C2.jpg,Stimuli/5C3.jpg,,,,,0,15,15,5,,,,,,,,1078.9696320999974,None,1079.969621199998,None,1085.9695053999967,None,"[-0.378, -0.136]","[0.07, 0.393]","[0.304, -0.26]","[-0.377, 0.138]","[0.306, 0.255]","[0.066, -0.395]","[-0.2, 0.346]","[0.399, -0.003]","[-0.203, -0.347]",,9.266090599983727,3.883213999983127,10.899843599985616,"[0.32222222222222224, 0.11296296296296296, -0.35555555555555557, -0.21388888888888888, -0.18703703703703703]","[0.23796296296296296, 0.38055555555555554, 0.15833333333333333, -0.23981481481481481, -0.3212962962962963]","[1, 1, 1, 1, 1]","[0, 0, 0, 0, 0]","[0, 0, 0, 0, 0]","[3.8663725000005797, 9.249541500001214, 9.732864800000243, 10.599483500001952, 10.882647200000065]",0.016039499983889982,10.89851769998495,['A2'],['B2'],['C3'],['blue'],['salmon'],['yellow'],1103.102279499999,None,8.0,2.0473458000014944,1103.102279499999,None,1109.535480399998,None,10.0,3.165227000001323,1113.8184202999983,None,8.0,4.498542400000588,1105.8188255999994,None,9.0,2.8315747999986343,<function functionImportanceC at 0x000001FB8081FD90>,<function functionImportanceB at 0x000001FB8081FEA0>,<function functionImportanceA at 0x000001FB8081F048>,,,0.0,3.014412099997571,10.0,2.7816602000020794,6.0,4.498542400000588,<function functiondiffC at 0x000001FB80433840>,<function functiondiffA at 0x000001FB804332F0>,<function functiondiffB at 0x000001FB80433AE8>,,,,,1091.7565789999971,1119.3854270999982,None,1115.851974899997,None,1121.785199599999,None,25,001,2022_Jul_20_1408,2leo,2021.2.3,60.545588407345754,
3,31,Plan your order at a restaurant    ,Stimuli/31A1.jpg,Stimuli/31A2.jpg,Stimuli/31A3.jpg,Stimuli/31B1.jpg,Stimuli/31B2.jpg,Stimuli/31B3.jpg,Stimuli/31C1.jpg,Stimuli/31C2.jpg,Stimuli/31C3.jpg,,,,,0,16,16,31,,,,,,,,1123.9849890999976,None,1124.9852397999966,None,1130.9849469,None,"[-0.2, 0.346]","[-0.203, -0.347]","[0.399, -0.003]","[-0.377, 0.138]","[0.066, -0.395]","[0.306, 0.255]","[-0.378, -0.136]","[0.304, -0.26]","[0.07, 0.393]",,3.1042035999962536,15.537515099997108,16.12124479999693,"[-0.175, 0.11388888888888889, 0.10648148148148148]","[-0.37962962962962965, -0.39351851851851855, 0.36203703703703705]","[1, 1, 1]","[0, 0, 0]","[0, 0, 0]","[3.1021113000024343, 15.535168400001567, 16.11847080000007]",0.0015784999959578272,16.119795599995996,['A2'],['B2'],['C3'],['yellow'],['salmon'],['blue'],1150.2343288999982,None,9.0,1.579982300001575,1150.2343288999982,None,1155.3842370999992,None,9.0,2.4149963000018033,1153.3675616999972,None,10.0,3.430927299999894,1157.8174660999975,None,8.0,2.18190930000128,<function functionImportanceA at 0x000001FB8081FBF8>,<function functionImportanceB at 0x000001FB8081F7B8>,<function functionImportanceC at 0x000001FB8081FA60>,,,2.0,1.4143297000009625,-0.0,1.9314489999997022,2.0,3.430927299999894,<function functiondiffC at 0x000001FB8081F9D8>,<function functiondiffA at 0x000001FB8081F950>,<function functiondiffB at 0x000001FB8081F158>,,,,,1133.6492018999998,1162.5841492,None,1159.9340843999998,None,1164.2008336,None,25,001,2022_Jul_20_1408,2leo,2021.2.3,60.545588407345754,
3,17,Plan a day in Barcelona with a friend who is new to the city,Stimuli/17A1.jpg,Stimuli/17A2.jpg,Stimuli/17A3.jpg,Stimuli/17B1.jpg,Stimuli/17B2.jpg,Stimuli/17B3.jpg,Stimuli/17C1.jpg,Stimuli/17C2.jpg,Stimuli/17C3.jpg,,,,,0,17,17,17,,,,,,,,1165.1336073999992,None,1166.1340452999975,None,1172.1340390999976,None,"[-0.378, -0.136]","[0.304, -0.26]","[0.07, 0.393]","[-0.2, 0.346]","[-0.203, -0.347]","[0.399, -0.003]","[-0.377, 0.138]","[0.066, -0.395]","[0.306, 0.255]",,6.214090759996907,13.064464959996258,12.2309480599979,"[0.03518518518518519, -0.33055555555555555, 0.39814814814814814]","[0.39444444444444443, 0.1824074074074074, 0.05555555555555555]","[1, 1, 1]","[0, 0, 0]","[0, 0, 0]","[6.207513400000607, 12.224039200002153, 13.057645100001537]",0.005976159998681396,13.063259959999414,['A3'],['B3'],['C1'],['blue'],['yellow'],['salmon'],1186.8665712000002,None,9.0,1.3967420000008133,1186.8665712000002,None,1191.7500738999988,None,9.0,4.3819739999999,1190.1667452000002,None,9.0,1.6320527999996557,1188.333329699999,None,9.0,1.7480289000013727,<function functionImportanceC at 0x000001FBA8451F28>,<function functionImportanceA at 0x000001FB8081F6A8>,<function functionImportanceB at 0x000001FB8081F378>,,,1.0,2.1985850000019127,-0.0,2.3140359000026365,0.0,1.6320527999996557,<function functiondiffB at 0x000001FB8081FB70>,<function functiondiffC at 0x000001FB80433D90>,<function functiondiffA at 0x000001FB805BCC80>,,,,,1173.3233957999983,1199.6998963999977,None,1198.3330767999978,None,1196.1165514999993,None,25,001,2022_Jul_20_1408,2leo,2021.2.3,60.545588407345754,
3,28,Plan a one-week camping trip in Spain,Stimuli/28A1.jpg,Stimuli/28A2.jpg,Stimuli/28A3.jpg,Stimuli/28B1.jpg,Stimuli/28B2.jpg,Stimuli/28B3.jpg,Stimuli/28C1.jpg,Stimuli/28C2.jpg,Stimuli/28C3.jpg,,,,,0,18,18,28,,,,,,,,1201.532632399998,None,1202.5328187999985,None,1208.532851,None,"[-0.377, 0.138]","[0.066, -0.395]","[0.306, 0.255]","[-0.2, 0.346]","[-0.203, -0.347]","[0.399, -0.003]","[-0.378, -0.136]","[0.304, -0.26]","[0.07, 0.393]",,25.648141019999457,29.131630320000113,15.982345320000604,"[0.0824074074074074, -0.387037037037037, 0.34814814814814815]","[0.36203703703703705, 0.1388888888888889, -0.01574074074074074]","[1, 1, 1]","[0, 0, 0]","[0, 0, 0]","[15.97454750000179, 25.641051000002335, 29.124069900000904]",0.006685219999781111,29.130487520000315,['A1'],['B3'],['C3'],['yellow'],['salmon'],['blue'],1239.2821385999996,None,2.0,1.9309838000008313,1239.2821385999996,None,1244.2987635999998,None,7.0,4.281490800000029,1241.2822462999975,None,2.0,2.997176100001525,1248.581780499997,None,2.0,5.431244700001116,<function functionImportanceA at 0x000001FBA8451A60>,<function functionImportanceB at 0x000001FB80B87730>,<function functionImportanceC at 0x000001FB80B87620>,,,7.0,1.614575600000535,7.0,1.8146254000021145,6.0,2.997176100001525,<function functiondiffC at 0x000001FB80B87AE8>,<function functiondiffB at 0x000001FB8081FD08>,<function functiondiffA at 0x000001FB8081FE18>,,,,,1209.6726999999992,1257.5983994999988,None,1254.0152110999989,None,1255.9650963999993,None,25,001,2022_Jul_20_1408,2leo,2021.2.3,60.545588407345754,
3,44,Plan a party at your place,Stimuli/44A1.jpg,Stimuli/44A2.jpg,Stimuli/44A3.jpg,Stimuli/44B1.jpg,Stimuli/44B2.jpg,Stimuli/44B3.jpg,Stimuli/44C1.jpg,Stimuli/44C2.jpg,Stimuli/44C3.jpg,,,,,0,19,19,44,,,,,,,,1258.9313892999999,None,1259.9314066999978,None,1265.9316027999994,None,"[-0.203, -0.347]","[0.399, -0.003]","[-0.2, 0.346]","[0.066, -0.395]","[0.306, 0.255]","[-0.377, 0.138]","[0.304, -0.26]","[0.07, 0.393]","[-0.378, -0.136]",,14.002061999999569,20.38542399999642,5.252830199999153,"[-0.37777777777777777, -0.18333333333333332, -0.37222222222222223]","[-0.1388888888888889, 0.2953703703703704, 0.11296296296296296]","[1, 1, 1]","[0, 0, 0]","[0, 0, 0]","[5.243192699999781, 13.993074000001798, 20.37619160000031]",0.008395199998631142,20.384315199997218,['A3'],['B3'],['C3'],['blue'],['salmon'],['yellow'],1287.9472950999989,None,8.0,1.613475500002096,1287.9472950999989,None,1294.5140709999978,None,9.0,1.765258499999618,1292.1640131999993,None,8.0,2.315043599999626,1289.6307213,None,8.0,2.530909299999621,<function functionImportanceC at 0x000001FB80B876A8>,<function functionImportanceA at 0x000001FB80B870D0>,<function functionImportanceB at 0x000001FB80B87510>,,,1.0,1.3812219999999797,1.0,1.4980882999989262,1.0,2.315043599999626,<function functiondiffC at 0x000001FB80B878C8>,<function functiondiffA at 0x000001FB8081F598>,<function functiondiffB at 0x000001FB8081F1E0>,,,,,1267.086720299998,1298.6139023999967,None,1296.2640709999978,None,1300.147326899998,None,25,001,2022_Jul_20_1408,2leo,2021.2.3,60.545588407345754,
3,22,Plan a beach day with your friends,Stimuli/22A1.jpg,Stimuli/22A2.jpg,Stimuli/22A3.jpg,Stimuli/22B1.jpg,Stimuli/22B2.jpg,Stimuli/22B3.jpg,Stimuli/22C1.jpg,Stimuli/22C2.jpg,Stimuli/22C3.jpg,,,,,0,20,20,22,,,,,,,,1301.0300113999983,None,1302.0305420999975,None,1308.0303534999985,None,"[0.07, 0.393]","[-0.378, -0.136]","[0.304, -0.26]","[0.399, -0.003]","[-0.2, 0.346]","[-0.203, -0.347]","[0.306, 0.255]","[-0.377, 0.138]","[0.066, -0.395]",,22.015715400000772,11.099679899998591,19.74962990000131,"[-0.16203703703703703, -0.32685185185185184, 0.30833333333333335]","[0.33055555555555555, 0.1361111111111111, -0.18611111111111112]","[1, 1, 1]","[0, 0, 0]","[0, 0, 0]","[11.091759500002809, 19.741485900001862, 22.00798830000349]",0.007100599999830592,22.01502039999832,['A3'],['B2'],['C2'],['yellow'],['blue'],['salmon'],1331.6795676000002,None,8.0,2.280431800001679,1331.6795676000002,None,1335.4796838000002,None,8.0,1.215171100000589,1336.7296317,None,8.0,1.5482402999987244,1334.046347399999,None,7.0,1.4477260999992723,<function functionImportanceC at 0x000001FB80B87598>,<function functionImportanceB at 0x000001FB80B879D8>,<function functionImportanceA at 0x000001FB80B87840>,,,3.0,1.397632899999735,3.0,1.26469569999972,2.0,1.5482402999987244,<function functiondiffC at 0x000001FB8081FF28>,<function functiondiffA at 0x000001FB8081F620>,<function functiondiffB at 0x000001FB8081F2F0>,,,,,1309.185982199997,1340.3961017000001,None,1338.2627747999977,None,1341.6794856999986,None,25,001,2022_Jul_20_1408,2leo,2021.2.3,60.545588407345754,
3,9,Plan a picnic with friends,Stimuli/9A1.jpg,Stimuli/9A2.jpg,Stimuli/9A3.jpg,Stimuli/9B1.jpg,Stimuli/9B2.jpg,Stimuli/9B3.jpg,Stimuli/9C1.jpg,Stimuli/9C2.jpg,Stimuli/9C3.jpg,,,,,0,21,21,9,,,,,,,,1342.595634899997,None,1343.5961390999983,None,1349.5959586999998,None,"[-0.377, 0.138]","[0.306, 0.255]","[0.066, -0.395]","[-0.2, 0.346]","[0.399, -0.003]","[-0.203, -0.347]","[-0.378, -0.136]","[0.07, 0.393]","[0.304, -0.26]",,14.738570019988401,5.689284419990145,23.92369121998854,"[-0.16296296296296298, -0.3296296296296296, 0.1]","[0.3527777777777778, 0.11018518518518519, 0.40370370370370373]","[1, 1, 1]","[0, 0, 0]","[0, 0, 0]","[5.6838841999997385, 14.733463599997776, 23.917973199997505]",0.004706019990408095,23.92139301998759,['A1'],['B1'],['C2'],['salmon'],['yellow'],['blue'],1379.3450196999984,None,2.0,1.4622343000010005,1379.3450196999984,None,1382.1467366999968,None,1.0,5.348241200001212,1387.7279479999997,None,8.0,5.831463500002428,1393.5447772999978,None,3.0,3.8486459000014293,<function functionImportanceB at 0x000001FB80B87BF8>,<function functionImportanceA at 0x000001FB80B877B8>,<function functionImportanceC at 0x000001FB80B87D08>,,,7.0,2.5976080000000366,0.0,1.5981809999975667,7.0,5.831463500002428,<function functiondiffB at 0x000001FB80B871E0>,<function functiondiffC at 0x000001FB80B87400>,<function functiondiffA at 0x000001FB80B87C80>,,,,,1354.964162999997,1401.812541299998,None,1398.9945719999996,None,1396.2946902999975,None,25,001,2022_Jul_20_1408,2leo,2021.2.3,60.545588407345754,
3,24,Plan your Monday morning on a workday ,Stimuli/24A1.jpg,Stimuli/24A2.jpg,Stimuli/24A3.jpg,Stimuli/24B1.jpg,Stimuli/24B2.jpg,Stimuli/24B3.jpg,Stimuli/24C1.jpg,Stimuli/24C2.jpg,Stimuli/24C3.jpg,,,,,0,22,22,24,,,,,,,,1402.494063799997,None,1403.494334799998,None,1409.4944486999993,None,"[0.066, -0.395]","[-0.377, 0.138]","[0.306, 0.255]","[0.304, -0.26]","[-0.378, -0.136]","[0.07, 0.393]","[-0.203, -0.347]","[-0.2, 0.346]","[0.399, -0.003]",,15.749134899997443,12.632955099998071,20.234313900000416,"[0.30185185185185187, 0.04814814814814815]","[-0.21944444444444444, -0.35]","[1, 1]","[0, 0]","[0, 0]","[12.62535470000148, 15.7417443000013]",0.006914499997947132,20.231658199998492,['A1'],['B1'],['C3'],['yellow'],['blue'],['salmon'],1431.3601844999976,None,10.0,1.54575350000232,1431.3601844999976,None,1433.0102037999968,None,9.0,3.2645088999997824,1436.2936211999986,None,9.0,2.398462799999834,1438.7102640999983,None,9.0,1.7981753999993089,<function functionImportanceB at 0x000001FB80B87378>,<function functionImportanceA at 0x000001FB80B87950>,<function functionImportanceC at 0x000001FB8081FAE8>,,,1.0,2.347549300000537,2.0,1.3144410999993852,1.0,2.398462799999834,<function functiondiffB at 0x000001FB80B87D90>,<function functiondiffC at 0x000001FB80B872F0>,<function functiondiffA at 0x000001FB8081F8C8>,,,,,1410.6501052999993,1444.2101418999991,None,1442.8268040999974,None,1440.4601715999997,None,25,001,2022_Jul_20_1408,2leo,2021.2.3,60.545588407345754,
3,15,Plan your own Pasta for lunch,Stimuli/15A1.jpg,Stimuli/15A2.jpg,Stimuli/15A3.jpg,Stimuli/15B1.jpg,Stimuli/15B2.jpg,Stimuli/15B3.jpg,Stimuli/15C1.jpg,Stimuli/15C2.jpg,Stimuli/15C3.jpg,,,,,0,23,23,15,,,,,,,,1445.0429756999984,None,1446.0432621,None,1452.0434369999966,None,"[0.07, 0.393]","[-0.378, -0.136]","[0.304, -0.26]","[0.399, -0.003]","[-0.2, 0.346]","[-0.203, -0.347]","[0.306, 0.255]","[-0.377, 0.138]","[0.066, -0.395]",,2.1463258799958567,5.564313679995394,7.930048679994798,"[0.1388888888888889, -0.19166666666666668, 0.030555555555555555]","[0.3509259259259259, 0.3111111111111111, -0.3416666666666667]","[1, 1, 1]","[0, 0, 0]","[0, 0, 0]","[2.1360519000008935, 5.5537313999993785, 7.919103399999585]",0.009829079994233325,7.92889417999686,['A1'],['B2'],['C3'],['yellow'],['blue'],['salmon'],1462.3594285,None,9.0,1.5302057999979297,1462.3594285,None,1463.9259430999991,None,8.0,2.147941900002479,1469.5261288000002,None,9.0,2.0651030000008177,1466.8262006999976,None,2.0,3.3147822999999335,<function functionImportanceB at 0x000001FB81072BF8>,<function functionImportanceC at 0x000001FB81072B70>,<function functionImportanceA at 0x000001FB80B87048>,,,2.0,2.0649081000010483,2.0,1.4476132999989204,4.0,2.0651030000008177,<function functiondiffC at 0x000001FB81072400>,<function functiondiffB at 0x000001FB80B87EA0>,<function functiondiffA at 0x000001FB80B87488>,,,,,1453.968568999997,1477.6092514999982,None,1471.6593074999982,None,1475.525964299999,None,25,001,2022_Jul_20_1408,2leo,2021.2.3,60.545588407345754,
3,30,Plan your sport work out for tomorrow,Stimuli/30A1.jpg,Stimuli/30A2.jpg,Stimuli/30A3.jpg,Stimuli/30B1.jpg,Stimuli/30B2.jpg,Stimuli/30B3.jpg,Stimuli/30C1.jpg,Stimuli/30C2.jpg,Stimuli/30C3.jpg,,,,,0,24,24,30,,,,,,,,1478.5756611999968,None,1479.5756735999967,None,1485.575731099998,None,"[-0.203, -0.347]","[-0.2, 0.346]","[0.399, -0.003]","[0.304, -0.26]","[-0.378, -0.136]","[0.07, 0.393]","[0.066, -0.395]","[-0.377, 0.138]","[0.306, 0.255]",,8.053002859996923,5.4364909599971725,10.336954259997583,"[0.33611111111111114, -0.1675925925925926, 0.32222222222222224]","[-0.2537037037037037, -0.30462962962962964, 0.2657407407407407]","[1, 1, 1]","[0, 0, 0]","[0, 0, 0]","[5.427031299997907, 8.04381039999862, 10.327100299997255]",0.008782359996985178,10.335593959996913,['A1'],['B1'],['C3'],['yellow'],['blue'],['salmon'],1497.575036899998,None,9.0,1.3130531000024348,1497.575036899998,None,1502.7269127,None,9.0,1.7652445999992779,1498.9584581999989,None,9.0,1.8980139000013878,1500.8917944999994,None,9.0,1.7814614000017173,<function functionImportanceA at 0x000001FB81072268>,<function functionImportanceC at 0x000001FB81072158>,<function functionImportanceB at 0x000001FB81072598>,,,0.0,1.51479130000007,0.0,1.56439699999828,2.0,1.8980139000013878,<function functiondiffA at 0x000001FB810729D8>,<function functiondiffB at 0x000001FB81072A60>,<function functiondiffC at 0x000001FB81072C80>,,,,,1486.7628385999997,1504.425218299999,None,1507.541717,None,1506.0251750999996,None,25,001,2022_Jul_20_1408,2leo,2021.2.3,60.545588407345754,
3,8,Plan the interior of your living-room ,Stimuli/8A1.jpg,Stimuli/8A2.jpg,Stimuli/8A3.jpg,Stimuli/8B1.jpg,Stimuli/8B2.jpg,Stimuli/8B3.jpg,Stimuli/8C1.jpg,Stimuli/8C2.jpg,Stimuli/8C3.jpg,,,,,0,25,25,8,,,,,,,,1508.5579917999967,None,1509.558277799999,None,1515.5585176999994,None,"[0.306, 0.255]","[-0.377, 0.138]","[0.066, -0.395]","[0.399, -0.003]","[-0.2, 0.346]","[-0.203, -0.347]","[0.07, 0.393]","[-0.378, -0.136]","[0.304, -0.26]",,20.639884919986798,10.390396719983983,23.90704541998639,"[0.4388888888888889, 0.3814814814814815, 0.3314814814814815]","[-0.01574074074074074, 0.23425925925925925, -0.21574074074074073]","[1, 1, 1]","[0, 0, 0]","[0, 0, 0]","[10.381307799998467, 20.631073699998524, 23.8974621999987]",0.00839961998644867,23.90556821998689,['A1'],['B1'],['C3'],['salmon'],['blue'],['yellow'],1544.7240162999988,None,1.0,1.6455490000007558,1544.7240162999988,None,1551.3073893999972,None,10.0,3.9149735999999393,1546.4074543999996,None,7.0,3.1646073999982036,1555.4239441999998,None,7.0,6.0650223000011465,<function functionImportanceA at 0x000001FBA84510D0>,<function functionImportanceB at 0x000001FBA80489D8>,<function functionImportanceC at 0x000001FB80433EA0>,,,1.0,3.2647042000025976,7.0,1.4811057000006258,7.0,3.1646073999982036,<function functiondiffB at 0x000001FB80B87158>,<function functiondiffC at 0x000001FB80B87268>,<function functiondiffA at 0x000001FB80B87E18>,,,,,1520.3434866999996,1565.3235561000001,None,1563.4569527999993,None,1560.1237532999985,None,25,001,2022_Jul_20_1408,2leo,2021.2.3,60.545588407345754,
3,7,Plan your Sunday breakfast ,Stimuli/7A1.jpg,Stimuli/7A2.jpg,Stimuli/7A3.jpg,Stimuli/7B1.jpg,Stimuli/7B2.jpg,Stimuli/7B3.jpg,Stimuli/7C1.jpg,Stimuli/7C2.jpg,Stimuli/7C3.jpg,,,,,0,26,26,7,,,,,,,,1566.3230936999971,None,1567.3233884999972,None,1573.3235373999996,None,"[-0.377, 0.138]","[0.306, 0.255]","[0.066, -0.395]","[-0.378, -0.136]","[0.07, 0.393]","[0.304, -0.26]","[-0.2, 0.346]","[0.399, -0.003]","[-0.203, -0.347]",,12.963285379984882,13.597035179984232,8.314061579985719,"[0.41203703703703703, -0.33055555555555555, 0.3861111111111111]","[0.03148148148148148, 0.1398148148148148, -0.29907407407407405]","[1, 1, 1]","[0, 0, 0]","[0, 0, 0]","[8.307979400000477, 12.957817099999374, 13.591038700000354]",0.005061279985966394,13.596072979984456,['A1'],['B3'],['C2'],['blue'],['yellow'],['salmon'],1593.4392907000001,None,10.0,1.063433499999519,1593.4392907000001,None,1600.892309499999,None,10.0,3.748820100001467,1604.4892354999974,None,10.0,3.348197399998753,1595.8394870999982,None,1.0,4.381060300001991,<function functionImportanceC at 0x000001FB81072488>,<function functionImportanceB at 0x000001FB81072D08>,<function functionImportanceA at 0x000001FB81072378>,,,0.0,2.2982617000016035,0.0,1.9978967999995803,4.0,3.348197399998753,<function functiondiffC at 0x000001FB81072D90>,<function functiondiffA at 0x000001FB81072840>,<function functiondiffB at 0x000001FB81072620>,,,,,1579.3843855999985,1609.055700599998,None,1606.405907799999,None,1611.239149699999,None,25,001,2022_Jul_20_1408,2leo,2021.2.3,60.545588407345754,
3,39,Plan what kind of watch you want to buy,Stimuli/39A1.jpg,Stimuli/39A2.jpg,Stimuli/39A3.jpg,Stimuli/39B1.jpg,Stimuli/39B2.jpg,Stimuli/39B3.jpg,Stimuli/39C1.jpg,Stimuli/39C2.jpg,Stimuli/39C3.jpg,,,,,0,27,27,39,,,,,,,,1612.4062169999997,None,1613.4056122000002,None,1619.4055627999987,None,"[0.306, 0.255]","[0.066, -0.395]","[-0.377, 0.138]","[0.07, 0.393]","[0.304, -0.26]","[-0.378, -0.136]","[0.399, -0.003]","[-0.203, -0.347]","[-0.2, 0.346]",,7.3495419200007746,3.916578420001315,12.33341891999953,"[0.08703703703703704, 0.07222222222222222, -0.1574074074074074]","[0.4, -0.36944444444444446, -0.3148148148148148]","[1, 1, 1]","[0, 0, 0]","[0, 0, 0]","[3.908967700001085, 7.342193299999053, 12.325610299998516]",0.0068024200008949265,12.332202819998201,['A2'],['B1'],['C2'],['salmon'],['yellow'],['blue'],1633.4382859999969,None,-0.0,1.4131436999996367,1633.4382859999969,None,1640.171478999997,None,2.0,1.6817627000018547,1634.9715245999978,None,2.0,3.5144714999987627,1638.5215403000002,None,2.0,1.6650472999972408,<function functionImportanceA at 0x000001FB81072510>,<function functionImportanceC at 0x000001FB81072048>,<function functionImportanceB at 0x000001FB81072730>,,,7.0,1.9477480000023206,8.0,1.4646782999989227,8.0,3.5144714999987627,<function functiondiffB at 0x000001FB80B87B70>,<function functiondiffA at 0x000001FB810721E0>,<function functiondiffC at 0x000001FB80B87A60>,,,,,1620.6270282999976,1643.7715374,None,1645.2567150999967,None,1641.8050115999977,None,25,001,2022_Jul_20_1408,2leo,2021.2.3,60.545588407345754,
3,14,Plan your own Pizza for dinner,Stimuli/14A1.jpg,Stimuli/14A2.jpg,Stimuli/14A3.jpg,Stimuli/14B1.jpg,Stimuli/14B2.jpg,Stimuli/14B3.jpg,Stimuli/14C1.jpg,Stimuli/14C2.jpg,Stimuli/14C3.jpg,,,,,0,28,28,14,,,,,,,,1645.9383965999987,None,1646.9379763999968,None,1652.938077699997,None,"[-0.378, -0.136]","[0.07, 0.393]","[0.304, -0.26]","[-0.2, 0.346]","[0.399, -0.003]","[-0.203, -0.347]","[-0.377, 0.138]","[0.306, 0.255]","[0.066, -0.395]",,13.928178259997367,18.145043859996804,25.611728659998334,"[0.31666666666666665, -0.175, -0.2953703703703704, 0.037037037037037035]","[-0.2518518518518518, -0.32685185185185184, -0.15925925925925927, -0.33796296296296297]","[1, 1, 1, 1]","[0, 0, 0, 0]","[0, 0, 0, 0]","[13.914481399999204, 18.131134700000985, 19.78105349999896, 25.597547500001383]",0.012905159997899318,25.610512159997597,['A3'],['B3'],['C3'],['yellow'],['salmon'],['blue'],1680.203732099999,None,5.0,1.9136746000003768,1680.203732099999,None,1683.6037956,None,7.0,1.6984346999997797,1685.2872160999977,None,10.0,2.1317966999995406,1682.170646399998,None,5.0,1.3644547999974748,<function functionImportanceC at 0x000001FB81495048>,<function functionImportanceB at 0x000001FB814952F0>,<function functionImportanceA at 0x000001FB810720D0>,,,7.0,2.5644508999976097,2.0,1.6146857000021555,6.0,2.1317966999995406,<function functiondiffB at 0x000001FB80B87F28>,<function functiondiffA at 0x000001FB81072AE8>,<function functiondiffC at 0x000001FB81495510>,,,,,1654.1205224999976,1689.9870875999986,None,1691.6202636999988,None,1687.4205133999967,None,25,001,2022_Jul_20_1408,2leo,2021.2.3,60.545588407345754,
3,0,Plan a barbecue,Stimuli/0A1.jpg,Stimuli/0A2.jpg,Stimuli/0A3.jpg,Stimuli/0B1.jpg,Stimuli/0B2.jpg,Stimuli/0B3.jpg,Stimuli/0C1.jpg,Stimuli/0C2.jpg,Stimuli/0C3.jpg,,,,,0,29,29,0,,,,,,,,1693.603917299999,None,1694.6034647999986,None,1700.6034741999974,None,"[0.399, -0.003]","[-0.203, -0.347]","[-0.2, 0.346]","[0.07, 0.393]","[0.304, -0.26]","[-0.378, -0.136]","[0.306, 0.255]","[0.066, -0.395]","[-0.377, 0.138]",,7.842444019992399,13.559123319992068,13.9760982199914,"[0.43703703703703706, 0.36203703703703705, 0.3574074074074074]","[-0.017592592592592594, -0.3101851851851852, 0.20185185185185187]","[1, 1, 1]","[0, 0, 0]","[0, 0, 0]","[7.828609000000142, 13.544855699998152, 13.96172579999984]",0.013424719993054168,13.974957019992871,['A1'],['B2'],['C1'],['blue'],['salmon'],['yellow'],1717.502665699998,None,9.0,1.8969847000007576,1717.502665699998,None,1725.535964499999,None,9.0,3.165090300000884,1723.2695002,None,9.0,3.5650419000012334,1719.4528116999973,None,9.0,2.464321400002518,<function functionImportanceC at 0x000001FB81495BF8>,<function functionImportanceA at 0x000001FB81495D08>,<function functionImportanceB at 0x000001FB81495378>,,,2.0,1.1144347000008565,2.0,1.8142557999999553,2.0,3.5650419000012334,<function functiondiffA at 0x000001FB810728C8>,<function functiondiffC at 0x000001FB81072EA0>,<function functiondiffB at 0x000001FB810726A8>,,,,,1703.0715831999987,1729.071165999998,None,1730.5193790999983,None,1731.8693073999966,None,25,001,2022_Jul_20_1408,2leo,2021.2.3,60.545588407345754,
3,42,Plan how to draw a painting ,Stimuli/42A1.jpg,Stimuli/42A2.jpg,Stimuli/42A3.jpg,Stimuli/42B1.jpg,Stimuli/42B2.jpg,Stimuli/42B3.jpg,Stimuli/42C1.jpg,Stimuli/42C2.jpg,Stimuli/42C3.jpg,,,,,0,30,30,42,,,,,,,,1833.7998625,None,1834.7998197999987,None,1840.7999450999996,None,"[0.399, -0.003]","[-0.2, 0.346]","[-0.203, -0.347]","[0.306, 0.255]","[-0.377, 0.138]","[0.066, -0.395]","[0.07, 0.393]","[-0.378, -0.136]","[0.304, -0.26]",,6.0016147999958775,8.03535379999812,11.685685299999022,"[-0.18425925925925926, -0.32222222222222224, 0.044444444444444446]","[0.325, 0.1388888888888889, 0.38333333333333336]","[1, 1, 1]","[0, 0, 0]","[0, 0, 0]","[5.985357300000032, 8.01879579999877, 11.669021199999406]",0.01574589999654563,11.684498599996004,['A2'],['B2'],['C1'],['blue'],['yellow'],['salmon'],1854.2659553999983,None,8.0,1.3797097999995458,1854.2659553999983,None,1855.7158608999998,None,8.0,1.7810062999997172,1859.7156503999977,None,9.0,1.9148255000000063,1857.5159841999994,None,9.0,1.9818651000023237,<function functionImportanceB at 0x000001FB81495268>,<function functionImportanceC at 0x000001FB81495730>,<function functionImportanceA at 0x000001FB81495950>,,,2.0,2.148171500000899,3.0,2.4635076000013214,3.0,1.9148255000000063,<function functiondiffA at 0x000001FB81072950>,<function functiondiffC at 0x000001FB81495B70>,<function functiondiffB at 0x000001FB81072F28>,,,,,1842.1122595999987,1861.4492441999973,None,1863.8990744999974,None,1865.0324985999978,None,25,001,2022_Jul_20_1408,2leo,2021.2.3,60.545588407345754,
3,43,Plan your dream house,Stimuli/43A1.jpg,Stimuli/43A2.jpg,Stimuli/43A3.jpg,Stimuli/43B1.jpg,Stimuli/43B2.jpg,Stimuli/43B3.jpg,Stimuli/43C1.jpg,Stimuli/43C2.jpg,Stimuli/43C3.jpg,,,,,0,31,31,43,,,,,,,,1866.699836099997,None,1867.698921799998,None,1873.6989880999972,None,"[-0.2, 0.346]","[-0.203, -0.347]","[0.399, -0.003]","[-0.378, -0.136]","[0.304, -0.26]","[0.07, 0.393]","[-0.377, 0.138]","[0.066, -0.395]","[0.306, 0.255]",,13.859166399997775,12.726373699999385,9.393099099997926,"[0.07407407407407407, 0.044444444444444446, -0.13703703703703704]","[-0.3314814814814815, 0.34074074074074073, 0.32314814814814813]","[1, 1, 1]","[0, 0, 0]","[0, 0, 0]","[9.38840479999999, 12.721740000000864, 13.855045200001769]",0.003694700000778539,13.858581799999229,['A1'],['B3'],['C2'],['blue'],['salmon'],['yellow'],1889.1983537999986,None,8.0,1.41357479999715,1889.1983537999986,None,1893.6647625999976,None,8.0,1.1816920000019309,1890.7151827999987,None,8.0,1.4974107000016375,1892.181725399998,None,8.0,1.4481527999996615,<function functionImportanceA at 0x000001FB81495E18>,<function functionImportanceC at 0x000001FB8081F840>,<function functionImportanceB at 0x000001FB814956A8>,,,3.0,1.3977962999997544,3.0,1.1644989999986137,3.0,1.4974107000016375,<function functiondiffC at 0x000001FB81495F28>,<function functiondiffA at 0x000001FB81495598>,<function functiondiffB at 0x000001FB81495488>,,,,,1874.858029199997,1897.4480406999974,None,1894.8317204999985,None,1898.6315482999998,None,25,001,2022_Jul_20_1408,2leo,2021.2.3,60.545588407345754,
3,38,Plan how you want to go for a run,Stimuli/38A1.jpg,Stimuli/38A2.jpg,Stimuli/38A3.jpg,Stimuli/38B1.jpg,Stimuli/38B2.jpg,Stimuli/38B3.jpg,Stimuli/38C1.jpg,Stimuli/38C2.jpg,Stimuli/38C3.jpg,,,,,0,32,32,38,,,,,,,,1899.5491681999993,None,1900.5646949000002,None,1906.5646908999988,None,"[-0.203, -0.347]","[-0.2, 0.346]","[0.399, -0.003]","[0.066, -0.395]","[-0.377, 0.138]","[0.306, 0.255]","[0.304, -0.26]","[-0.378, -0.136]","[0.07, 0.393]",,16.988417420001497,18.788628620000964,11.589384920000157,"[-0.35555555555555557, -0.17962962962962964, 0.09444444444444444]","[-0.09722222222222222, -0.3490740740740741, -0.35462962962962963]","[1, 1, 1]","[0, 0, 0]","[0, 0, 0]","[11.586927500000456, 16.986555799998314, 18.7865309000008]",0.0014287199992395472,18.78780331999951,['A1'],['B1'],['C2'],['blue'],['yellow'],['salmon'],1927.0640759999987,None,8.0,1.5803788999983226,1927.0640759999987,None,1928.7141405999973,None,8.0,1.4809559000023,1930.2159871999975,None,1.0,2.265346000000136,1932.5806123999973,None,2.0,4.131787499998609,<function functionImportanceB at 0x000001FB8081F0D0>,<function functionImportanceA at 0x000001FB81495400>,<function functionImportanceC at 0x000001FB8177F8C8>,,,3.0,2.0481863000022713,2.0,2.8811950999988767,3.0,2.265346000000136,<function functiondiffA at 0x000001FB810722F0>,<function functiondiffC at 0x000001FB81495158>,<function functiondiffB at 0x000001FB81495AE8>,,,,,1907.793347499999,1936.6136301999977,None,1939.5305678999975,None,1941.2638842999986,None,25,001,2022_Jul_20_1408,2leo,2021.2.3,60.545588407345754,
3,35,Plan how you want to do your grocery shopping ,Stimuli/35A1.jpg,Stimuli/35A2.jpg,Stimuli/35A3.jpg,Stimuli/35B1.jpg,Stimuli/35B2.jpg,Stimuli/35B3.jpg,Stimuli/35C1.jpg,Stimuli/35C2.jpg,Stimuli/35C3.jpg,,,,,0,33,33,35,,,,,,,,1942.8313490999972,None,1943.8303156999973,None,1949.8303221999995,None,"[0.399, -0.003]","[-0.203, -0.347]","[-0.2, 0.346]","[0.306, 0.255]","[0.066, -0.395]","[-0.377, 0.138]","[0.07, 0.393]","[0.304, -0.26]","[-0.378, -0.136]",,10.75736479999614,10.191052699996362,14.974755699997331,"[0.3148148148148148, 0.38796296296296295, -0.39814814814814814]","[0.24074074074074073, 0.026851851851851852, -0.16296296296296298]","[1, 1, 1]","[0, 0, 0]","[0, 0, 0]","[10.179642400002194, 10.746223900001496, 14.962926200001675]",0.010734499996033264,14.97333819999767,['A1'],['B1'],['C3'],['yellow'],['salmon'],['blue'],1966.513027699999,None,8.0,2.4136472000027425,1966.513027699999,None,1973.8796496999967,None,10.0,2.8483721999982663,1970.9798332999999,None,1.0,2.831846900000528,1968.9963257999989,None,8.0,1.9482547999978124,<function functionImportanceC at 0x000001FB8177FD90>,<function functionImportanceA at 0x000001FB81495D90>,<function functionImportanceB at 0x000001FB8177FEA0>,,,0.0,2.4144910000031814,5.0,4.614220600000408,8.0,2.831846900000528,<function functiondiffC at 0x000001FB81495C80>,<function functiondiffA at 0x000001FB814957B8>,<function functiondiffB at 0x000001FB814958C8>,,,,,1951.0661643999993,1978.4629141999976,None,1976.629470099997,None,1983.1126332999993,None,25,001,2022_Jul_20_1408,2leo,2021.2.3,60.545588407345754,
3,20,Plan a tea party with your friends,Stimuli/20A1.jpg,Stimuli/20A2.jpg,Stimuli/20A3.jpg,Stimuli/20B1.jpg,Stimuli/20B2.jpg,Stimuli/20B3.jpg,Stimuli/20C1.jpg,Stimuli/20C2.jpg,Stimuli/20C3.jpg,,,,,0,34,34,20,,,,,,,,1985.0305286999974,None,1986.0459503999991,None,1992.0459354999984,None,"[-0.378, -0.136]","[0.304, -0.26]","[0.07, 0.393]","[-0.377, 0.138]","[0.066, -0.395]","[0.306, 0.255]","[-0.2, 0.346]","[-0.203, -0.347]","[0.399, -0.003]",,12.191503479989478,18.47489467999185,18.058354879991384,"[0.10462962962962963, -0.16018518518518518, -0.3574074074074074]","[0.38055555555555554, 0.325, 0.06388888888888888]","[1, 1, 1]","[0, 0, 0]","[0, 0, 0]","[12.175404099998559, 18.041863599999488, 18.45870489999652]",0.015509579989156919,18.473960779989284,['A3'],['B1'],['C1'],['salmon'],['yellow'],['blue'],2014.5451328999989,None,7.0,1.7634628000014345,2014.5451328999989,None,2021.279219,None,7.0,4.1649980999973195,2023.0782166999998,None,8.0,1.7315434999982244,2016.363492499997,None,7.0,2.481176000001142,<function functionImportanceC at 0x000001FB8177FE18>,<function functionImportanceB at 0x000001FB8177FAE8>,<function functionImportanceA at 0x000001FB81072E18>,,,3.0,2.2143190000024333,0.0,2.06443070000023,3.0,1.7315434999982244,<function functiondiffC at 0x000001FB81495840>,<function functiondiffB at 0x000001FB814950D0>,<function functiondiffA at 0x000001FB8177F378>,,,,,1995.6182977999997,2028.628193299999,None,2024.7783089999975,None,2026.9446327999976,None,25,001,2022_Jul_20_1408,2leo,2021.2.3,60.545588407345754,
3,33,Plan the items to decorate your Christmas tree,Stimuli/33A1.jpg,Stimuli/33A2.jpg,Stimuli/33A3.jpg,Stimuli/33B1.jpg,Stimuli/33B2.jpg,Stimuli/33B3.jpg,Stimuli/33C1.jpg,Stimuli/33C2.jpg,Stimuli/33C3.jpg,,,,,0,35,35,33,,,,,,,,2030.2126622999967,None,2031.2279655999992,None,2037.2280827999966,None,"[-0.2, 0.346]","[0.399, -0.003]","[-0.203, -0.347]","[-0.378, -0.136]","[0.07, 0.393]","[0.304, -0.26]","[-0.377, 0.138]","[0.306, 0.255]","[0.066, -0.395]",,5.6848555600008694,13.885216059999948,16.952229959999386,"[-0.18518518518518517, 0.2916666666666667, 0.31666666666666665]","[-0.3138888888888889, -0.2777777777777778, 0.24166666666666667]","[1, 1, 1]","[0, 0, 0]","[0, 0, 0]","[5.678862400000071, 13.878870199998346, 16.94582719999744]",0.005399559999204939,16.950817659999302,['A3'],['B3'],['C2'],['yellow'],['blue'],['salmon'],2056.3438763999984,None,8.0,1.3801177999994252,2056.3438763999984,None,2059.1273260999988,None,8.0,1.4654048999982479,2061.077557499997,None,8.0,2.414925900000526,2057.810613499998,None,9.0,1.2646567999981926,<function functionImportanceC at 0x000001FB8177FD08>,<function functionImportanceB at 0x000001FB8177FB70>,<function functionImportanceA at 0x000001FB8177F9D8>,,,2.0,3.080933000001096,2.0,1.2983229999990726,2.0,2.414925900000526,<function functiondiffB at 0x000001FB8177F510>,<function functiondiffA at 0x000001FB8081FC80>,<function functiondiffC at 0x000001FB8177F7B8>,,,,,2038.928741599997,2066.1940540999967,None,2067.3769250999976,None,2062.9607092999977,None,25,001,2022_Jul_20_1408,2leo,2021.2.3,60.545588407345754,
3,26,Plan how to wash one round of your laundry ,Stimuli/26A1.jpg,Stimuli/26A2.jpg,Stimuli/26A3.jpg,Stimuli/26B1.jpg,Stimuli/26B2.jpg,Stimuli/26B3.jpg,Stimuli/26C1.jpg,Stimuli/26C2.jpg,Stimuli/26C3.jpg,,,,,0,36,36,26,,,,,,,,2068.2791569,None,2069.2936292999984,None,2075.2937977999973,None,"[-0.2, 0.346]","[-0.203, -0.347]","[0.399, -0.003]","[-0.377, 0.138]","[0.066, -0.395]","[0.306, 0.255]","[-0.378, -0.136]","[0.304, -0.26]","[0.07, 0.393]",,14.110144020000007,21.52707902000111,21.17711541999961,"[0.4777777777777778, 0.11203703703703703, 0.35555555555555557]","[0.013888888888888888, 0.3611111111111111, 0.2351851851851852]","[1, 1, 1]","[0, 0, 0]","[0, 0, 0]","[14.096919499999785, 21.163440000000264, 21.513650900000357]",0.012575019998621428,21.525837919998594,['A3'],['B3'],['C3'],['blue'],['salmon'],['yellow'],2098.426280599997,None,2.0,2.0965562999990652,2098.426280599997,None,2100.593001199999,None,3.0,4.164882700002636,2108.1426412,None,7.0,2.7484749000032025,2104.776320699999,None,8.0,3.3483354000018153,<function functionImportanceB at 0x000001FB819A6B70>,<function functionImportanceC at 0x000001FB819A6158>,<function functionImportanceA at 0x000001FB8177F268>,,,8.0,2.7312602999991213,6.0,1.6810633999994025,2.0,2.7484749000032025,<function functiondiffB at 0x000001FB8177F620>,<function functiondiffC at 0x000001FB8177FF28>,<function functiondiffA at 0x000001FB8177F1E0>,,,,,2076.427784399999,2115.776011099999,None,2113.625874399997,None,2110.876021099997,None,25,001,2022_Jul_20_1408,2leo,2021.2.3,60.545588407345754,
3,32,Plan how you want to relax after a workday,Stimuli/32A1.jpg,Stimuli/32A2.jpg,Stimuli/32A3.jpg,Stimuli/32B1.jpg,Stimuli/32B2.jpg,Stimuli/32B3.jpg,Stimuli/32C1.jpg,Stimuli/32C2.jpg,Stimuli/32C3.jpg,,,,,0,37,37,32,,,,,,,,2116.9774335999973,None,2117.9923070999976,None,2123.9925398999985,None,"[0.07, 0.393]","[-0.378, -0.136]","[0.304, -0.26]","[0.399, -0.003]","[-0.2, 0.346]","[-0.203, -0.347]","[0.306, 0.255]","[-0.377, 0.138]","[0.066, -0.395]",,39.765456679993804,37.16658417999133,29.76631797999289,"[-0.3638888888888889, 0.4287037037037037, 0.05925925925925926]","[0.125, 0.03981481481481482, 0.34814814814814815]","[1, 1, 1]","[0, 0, 0]","[0, 0, 0]","[29.75929819999874, 37.17581069999869, 39.75912170000083]",0.005933079992246348,39.76478657999178,['A1'],['B1'],['C2'],['blue'],['yellow'],['salmon'],2167.2244592999996,None,9.0,1.5801930000016,2167.2244592999996,None,2169.6579121999966,None,9.0,2.914525500000309,2172.891049099999,None,8.0,2.498448299997108,2174.324453099998,None,1.0,4.648357799997029,<function functionImportanceB at 0x000001FB819A6400>,<function functionImportanceA at 0x000001FB819A6378>,<function functionImportanceC at 0x000001FB819A6EA0>,,,1.0,1.8646197999987635,2.0,3.431066400000418,9.0,2.498448299997108,<function functiondiffA at 0x000001FB8177FBF8>,<function functiondiffB at 0x000001FB8177F840>,<function functiondiffC at 0x000001FB819A68C8>,,,,,2126.999196499997,2179.3075210999996,None,2184.290738599997,None,2182.5740428999998,None,25,001,2022_Jul_20_1408,2leo,2021.2.3,60.545588407345754,
3,19,Plan how you want your garden to look like,Stimuli/19A1.jpg,Stimuli/19A2.jpg,Stimuli/19A3.jpg,Stimuli/19B1.jpg,Stimuli/19B2.jpg,Stimuli/19B3.jpg,Stimuli/19C1.jpg,Stimuli/19C2.jpg,Stimuli/19C3.jpg,,,,,0,38,38,19,,,,,,,,2185.959380999997,None,2186.9738626,None,2192.9740389,None,"[0.304, -0.26]","[0.07, 0.393]","[-0.378, -0.136]","[0.066, -0.395]","[0.306, 0.255]","[-0.377, 0.138]","[-0.203, -0.347]","[0.399, -0.003]","[-0.2, 0.346]",,21.49432089999391,7.578326499991817,27.327903399993374,"[-0.4064814814814815, 0.275, -0.19537037037037036]","[0.08425925925925926, -0.24537037037037038, -0.32407407407407407]","[1, 1, 1]","[0, 0, 0]","[0, 0, 0]","[7.577357200003462, 21.493780900000274, 27.326818500001536]",0.00012939999214722775,27.32681629999206,['A1'],['B3'],['C1'],['salmon'],['yellow'],['blue'],2224.422887499997,None,8.0,6.81341859999884,2224.422887499997,None,2244.3392590999974,None,10.0,2.8650280999972892,2236.4725162999966,None,9.0,6.798342300000513,2232.6563216999966,None,7.0,5.098038699998142,<function functionImportanceC at 0x000001FB819A6AE8>,<function functionImportanceA at 0x000001FB819A6D08>,<function functionImportanceB at 0x000001FB819A6488>,,,-0.0,2.0975667999991856,2.0,1.6310134999985166,8.0,6.798342300000513,<function functiondiffB at 0x000001FB819A6F28>,<function functiondiffA at 0x000001FB8177F598>,<function functiondiffC at 0x000001FB819A69D8>,,,,,2196.629964099997,2248.205821299998,None,2250.2223903999984,None,2246.3223599999983,None,25,001,2022_Jul_20_1408,2leo,2021.2.3,60.545588407345754,
3,12,Plan the ingredients to mix yourself a cocktail,Stimuli/12A1.jpg,Stimuli/12A2.jpg,Stimuli/12A3.jpg,Stimuli/12B1.jpg,Stimuli/12B2.jpg,Stimuli/12B3.jpg,Stimuli/12C1.jpg,Stimuli/12C2.jpg,Stimuli/12C3.jpg,,,,,0,39,39,12,,,,,,,,2251.291026499999,None,2252.305638499998,None,2258.3056247999994,None,"[-0.377, 0.138]","[0.066, -0.395]","[0.306, 0.255]","[-0.2, 0.346]","[-0.203, -0.347]","[0.399, -0.003]","[-0.378, -0.136]","[0.304, -0.26]","[0.07, 0.393]",,41.52289258000383,36.923417080000945,40.97347648000141,"[-0.17592592592592593, -0.3990740740740741, 0.3296296296296296]","[0.31666666666666665, -0.14537037037037037, 0.33425925925925926]","[1, 1, 1]","[0, 0, 0]","[0, 0, 0]","[36.92027269999744, 40.970069399998465, 41.51976669999931]",0.0024802800035104156,41.52219658000104,['A3'],['B1'],['C1'],['yellow'],['salmon'],['blue'],2301.487662299998,None,10.0,1.1807484999990265,2301.487662299998,None,2307.3041666999998,None,9.0,1.815089600000647,2305.3374508999987,None,9.0,1.94809449999957,2302.770770799998,None,9.0,2.5645683000002464,<function functionImportanceC at 0x000001FB81D92158>,<function functionImportanceA at 0x000001FB819A6950>,<function functionImportanceB at 0x000001FB819A66A8>,,,3.0,1.2141765000014857,2.0,1.3314395000015793,3.0,1.94809449999957,<function functiondiffC at 0x000001FB819A6C80>,<function functiondiffB at 0x000001FB819A67B8>,<function functiondiffA at 0x000001FB8177F488>,,,,,2259.4823621999967,2314.3540532999978,None,2309.0875944,None,2313.1207314999992,None,25,001,2022_Jul_20_1408,2leo,2021.2.3,60.545588407345754,
3,10,Plan a restaurant visit with your family on the weekend ,Stimuli/10A1.jpg,Stimuli/10A2.jpg,Stimuli/10A3.jpg,Stimuli/10B1.jpg,Stimuli/10B2.jpg,Stimuli/10B3.jpg,Stimuli/10C1.jpg,Stimuli/10C2.jpg,Stimuli/10C3.jpg,,,,,0,40,40,10,,,,,,,,2315.206198699998,None,2316.2205981999978,None,2322.220709899997,None,"[-0.203, -0.347]","[-0.2, 0.346]","[0.399, -0.003]","[0.304, -0.26]","[-0.378, -0.136]","[0.07, 0.393]","[0.066, -0.395]","[-0.377, 0.138]","[0.306, 0.255]",,13.440388819988584,2.8245818199902715,6.524825219988998,"[0.09166666666666666, 0.3101851851851852, 0.3962962962962963]","[0.40925925925925927, 0.25555555555555554, 0.012962962962962963]","[1, 1, 1]","[0, 0, 0]","[0, 0, 0]","[2.8190936999999394, 6.519103299997369, 13.435089799997513]",0.0046453199902316555,13.439686919988162,['A3'],['B3'],['C3'],['yellow'],['salmon'],['blue'],2340.0867486999996,None,8.0,1.4474122999999963,2340.0867486999996,None,2347.803348499998,None,9.0,4.514946400002373,2341.719936199999,None,8.0,3.481525999999576,2349.619728999998,None,3.0,6.165365000000747,<function functionImportanceA at 0x000001FB819A6BF8>,<function functionImportanceB at 0x000001FB819A6620>,<function functionImportanceC at 0x000001FB81D92048>,,,-0.0,3.5141105000002426,1.0,2.814639200001693,6.0,3.481525999999576,<function functiondiffA at 0x000001FB819A6268>,<function functiondiffB at 0x000001FB819A6840>,<function functiondiffC at 0x000001FB81D926A8>,,,,,2326.1828236,2355.8031319999973,None,2362.1528698999973,None,2359.3862820999966,None,25,001,2022_Jul_20_1408,2leo,2021.2.3,60.545588407345754,
3,25,Plan how you want to read a book in your free time ,Stimuli/25A1.jpg,Stimuli/25A2.jpg,Stimuli/25A3.jpg,Stimuli/25B1.jpg,Stimuli/25B2.jpg,Stimuli/25B3.jpg,Stimuli/25C1.jpg,Stimuli/25C2.jpg,Stimuli/25C3.jpg,,,,,0,41,41,25,,,,,,,,2363.988394199998,None,2365.0025258999995,None,2371.002727299998,None,"[-0.203, -0.347]","[0.399, -0.003]","[-0.2, 0.346]","[0.304, -0.26]","[0.07, 0.393]","[-0.378, -0.136]","[0.066, -0.395]","[0.306, 0.255]","[-0.377, 0.138]",,14.750095179999335,5.700449479998497,11.034164779997809,"[0.11574074074074074, -0.3074074074074074, 0.487962962962963]","[0.41944444444444445, 0.15555555555555556, 0.030555555555555555]","[1, 1, 1]","[0, 0, 0]","[0, 0, 0]","[5.68561100000079, 11.018915800003015, 14.735530500001914]",0.01402307999887853,14.749376979998488,['A2'],['B2'],['C3'],['salmon'],['blue'],['yellow'],2387.718798799997,None,8.0,1.9801337999997486,2387.718798799997,None,2393.5187148999976,None,8.0,1.8983563000001595,2389.7686364999972,None,8.0,1.9812268999994558,2392.068739899998,None,8.0,1.6317845000012312,<function functionImportanceA at 0x000001FB810727B8>,<function functionImportanceC at 0x000001FB814959D8>,<function functionImportanceB at 0x000001FB81495EA0>,,,2.0,2.4811065000030794,2.0,1.5144605000023148,8.0,1.9812268999994558,<function functiondiffB at 0x000001FB819A60D0>,<function functiondiffA at 0x000001FB819A62F0>,<function functiondiffC at 0x000001FB819A6D90>,,,,,2372.512410299998,2397.8019489,None,2399.418576799999,None,2395.318531099998,None,25,001,2022_Jul_20_1408,2leo,2021.2.3,60.545588407345754,
3,18,Plan your Saturday night ,Stimuli/18A1.jpg,Stimuli/18A2.jpg,Stimuli/18A3.jpg,Stimuli/18B1.jpg,Stimuli/18B2.jpg,Stimuli/18B3.jpg,Stimuli/18C1.jpg,Stimuli/18C2.jpg,Stimuli/18C3.jpg,,,,,0,42,42,18,,,,,,,,2402.321431199998,None,2403.334919099998,None,2409.3349777999974,None,"[-0.2, 0.346]","[-0.203, -0.347]","[0.399, -0.003]","[-0.377, 0.138]","[0.066, -0.395]","[0.306, 0.255]","[-0.378, -0.136]","[0.304, -0.26]","[0.07, 0.393]",,17.455896240000584,14.039638140002353,18.522623040000326,"[0.0824074074074074, -0.1425925925925926, -0.35833333333333334]","[-0.38796296296296295, 0.3, -0.10648148148148148]","[1, 1, 1]","[0, 0, 0]","[0, 0, 0]","[14.0282100000004, 17.4448498999991, 18.511026899999706]",0.010638840001774952,18.52162443999987,['A1'],['B2'],['C1'],['yellow'],['blue'],['salmon'],2429.4510429,None,8.0,2.196982699999353,2429.4510429,None,2431.667649699997,None,0.0,2.681353099997068,2436.3841670999973,None,9.0,1.314904300001217,2434.434330699998,None,8.0,1.9480991999989783,<function functionImportanceB at 0x000001FB81D921E0>,<function functionImportanceC at 0x000001FB81D922F0>,<function functionImportanceA at 0x000001FB81D92378>,,,7.0,1.8646875000013097,1.0,1.864711599999282,-0.0,1.314904300001217,<function functiondiffC at 0x000001FB81D928C8>,<function functiondiffB at 0x000001FB819A6048>,<function functiondiffA at 0x000001FB8177F730>,,,,,2410.4558163,2441.634145,None,2437.684197999999,None,2439.734213699998,None,25,001,2022_Jul_20_1408,2leo,2021.2.3,60.545588407345754,
3,13,Plan a romantic date this weekend,Stimuli/13A1.jpg,Stimuli/13A2.jpg,Stimuli/13A3.jpg,Stimuli/13B1.jpg,Stimuli/13B2.jpg,Stimuli/13B3.jpg,Stimuli/13C1.jpg,Stimuli/13C2.jpg,Stimuli/13C3.jpg,,,,,0,43,43,13,,,,,,,,2443.0200192999982,None,2444.0338556999995,None,2450.0338588999984,None,"[-0.2, 0.346]","[0.399, -0.003]","[-0.203, -0.347]","[-0.378, -0.136]","[0.07, 0.393]","[0.304, -0.26]","[-0.377, 0.138]","[0.306, 0.255]","[0.066, -0.395]",,8.156306420001783,16.82311602000118,18.956548419999308,"[-0.18333333333333332, 0.09074074074074075, 0.36944444444444446]","[0.3472222222222222, 0.36203703703703705, 0.2462962962962963]","[1, 1, 1]","[0, 0, 0]","[0, 0, 0]","[8.145542599999317, 16.812022699999943, 18.945169099999475]",0.010335219998523826,18.955345220001618,['A1'],['B2'],['C2'],['yellow'],['salmon'],['blue'],2470.683221299998,None,8.0,2.6638044999999693,2470.683221299998,None,2476.149777999999,None,8.0,2.8984382999988156,2479.0165166999977,None,9.0,2.4815883000010217,2473.4332909999976,None,8.0,2.664616099998966,<function functionImportanceC at 0x000001FB81D92598>,<function functionImportanceB at 0x000001FB8177F400>,<function functionImportanceA at 0x000001FB8177F950>,,,2.0,2.964435899997625,2.0,1.2144129000007524,2.0,2.4815883000010217,<function functiondiffB at 0x000001FB819A6598>,<function functiondiffC at 0x000001FB819A61E0>,<function functiondiffA at 0x000001FB8177FC80>,,,,,2451.2527311999984,2485.8328169999986,None,2484.4496155999987,None,2481.499625799999,None,25,001,2022_Jul_20_1408,2leo,2021.2.3,60.545588407345754,
3,11,Plan a hike in nature on a free day,Stimuli/11A1.jpg,Stimuli/11A2.jpg,Stimuli/11A3.jpg,Stimuli/11B1.jpg,Stimuli/11B2.jpg,Stimuli/11B3.jpg,Stimuli/11C1.jpg,Stimuli/11C2.jpg,Stimuli/11C3.jpg,,,,,0,44,44,11,,,,,,,,2486.571018399998,None,2487.582692199998,None,2493.5829223,None,"[-0.203, -0.347]","[-0.2, 0.346]","[0.399, -0.003]","[0.304, -0.26]","[-0.378, -0.136]","[0.07, 0.393]","[0.066, -0.395]","[-0.377, 0.138]","[0.306, 0.255]",,10.550872299994808,5.051910099995439,9.984669999998005,"[0.05277777777777778, 0.33055555555555555, 0.3851851851851852]","[0.34814814814814815, 0.2361111111111111, -0.001851851851851852]","[1, 1, 1]","[0, 0, 0]","[0, 0, 0]","[5.0424826000016765, 9.975857100002031, 10.542578500000673]",0.007709599994996097,10.549983299995802,['A3'],['B3'],['C3'],['blue'],['salmon'],['yellow'],2505.765615299999,None,3.0,1.9634293999988586,2505.765615299999,None,2507.815699999999,None,8.0,2.0144560000007914,2509.8324668999994,None,2.0,2.148355099998298,2511.998976699997,None,8.0,1.798145900000236,<function functionImportanceB at 0x000001FB819A6730>,<function functionImportanceA at 0x000001FB819A6E18>,<function functionImportanceC at 0x000001FB81D92620>,,,6.0,1.0648889000003692,2.0,1.8480326999997487,2.0,2.148355099998298,<function functiondiffC at 0x000001FB81D920D0>,<function functiondiffA at 0x000001FB81D92268>,<function functiondiffB at 0x000001FB81D92B70>,,,,,2494.739171199999,2515.998888899998,None,2513.7822073999996,None,2517.865611399997,None,25,001,2022_Jul_20_1408,2leo,2021.2.3,60.545588407345754,
