Condition,N_Scenario,written_scenario,ImageA1,ImageA2,ImageA3,ImageB1,ImageB2,ImageB3,ImageC1,ImageC2,ImageC3,trials_2.thisRepN,trials_2.thisTrialN,trials_2.thisN,trials_2.thisIndex,trial.thisRepN,trial.thisTrialN,trial.thisN,trial.thisIndex,button_2.started,button_2.stopped,button_2.numClicks,button_2.timesOn,button_2.timesOff,text.started,text.stopped,fixationcross1_started,fixationcross1_stopped,Scenario_started,Scenario_stopped,fixationcross2_started,fixationcross2_stopped,A1pos,A2pos,A3pos,B1pos,B2pos,B3pos,C1pos,C2pos,C3pos,﻿Imagesdecision_started,decisiontimeA,decisiontimeB,decisiontimeC,mouse_x,mouse_y,mouse_leftButton,mouse_midButton,mouse_rightButton,mouse_time,mouse_started,mouse_stopped,clicked_optionA,clicked_optionB,clicked_optionC,colour_category_A,colour_category_B,colour_category_C,question_confidence_started,question_confidence_stopped,slider_confidence_response,slider_confidence_rt,slider_confidence_started,slider_confidence_stopped,question_valueB_started,question_valueB_stopped,slider_valueB_response,slider_valueB_rt,question_valueA_started,question_valueA_stopped,slider_valueA_response,slider_valueA_rt,question_valueC_started,question_valueC_stopped,slider_valueC_response,slider_valueC_rt,Importance_First,Importance_Second,Importance_Third,question_diff_started,question_diff_stopped,slider_diffC_response,slider_diffC_rt,slider_diffA_response,slider_diffA_rt,slider_diffB_response,slider_diffB_rt,diff_First,diff_Second,diff_Third,button_3_started,button_3_stopped,text_2_started,text_2_stopped,Imagesdecision_started,question_diffB_started,question_diffB_stopped,question_diffA_started,question_diffA_stopped,question_diffC_started,question_diffC_stopped,participant,session,date,expName,psychopyVersion,frameRate,
3,2,Plan a party to celebrate your birthday,Stimuli/2A1t.jpg,Stimuli/2A2t.jpg,Stimuli/2A3t.jpg,Stimuli/2B1t.jpg,Stimuli/2B2t.jpg,Stimuli/2B3t.jpg,Stimuli/2C1t.jpg,Stimuli/2C2t.jpg,Stimuli/2C3t.jpg,0,0,0,0,,,,,30.523426699999618,None,1,[14.891973599998892],[14.891977999999654],30.523426699999618,None,92.76510589999998,None,93.76911209999889,None,99.76889059999849,None,"[0.304, -0.26]","[-0.378, -0.136]","[0.07, 0.393]","[0.066, -0.395]","[-0.377, 0.138]","[0.306, 0.255]","[-0.203, -0.347]","[-0.2, 0.346]","[0.399, -0.003]",103.77118089999931,40.42385564000142,3.691845640001702,28.0748439400013,"[-0.000925925925925926, 0.22592592592592592, 0.26666666666666666, -0.30185185185185187, -0.15, -0.16296296296296298, -0.2064814814814815, -0.19444444444444445, 0.2824074074074074]","[-0.3675925925925926, 0.28888888888888886, 0.23796296296296296, 0.14444444444444443, 0.38425925925925924, -0.35555555555555557, -0.32037037037037036, -0.2953703703703704, -0.26851851851851855]","[1, 1, 1, 1, 1, 1, 1, 1, 1]","[0, 0, 0, 0, 0, 0, 0, 0, 0]","[0, 0, 0, 0, 0, 0, 0, 0, 0]","[3.677815000000919, 7.511072700001023, 9.711299400001735, 10.677825900000244, 28.06046090000018, 34.477035400001114, 35.37706730000173, 37.24368230000073, 40.410115900000164]",0.01330804000099306,40.423371040002166,['A1'],['B1'],['C2'],['yellow'],['blue'],['salmon'],144.65137510000022,None,7.0,7.330396700001074,144.65137510000022,None,153.6008469999997,None,4.0,19.381596299999728,172.73351869999897,None,8.0,7.480390100001387,178.96682209999926,None,6.0,3.431683000000703,<function functionImportanceBt at 0x000001A46C669950>,<function functionImportanceAt at 0x000001A46C669598>,<function functionImportanceCt at 0x000001A46C669D90>,200.34959159999926,None,3.0,12.080678599999374,6.0,7.480390100001387,0.0,4.264637899999798,<function functiondiffCt at 0x000001A404001EA0>,<function functiondiffAt at 0x000001A404001AE8>,<function functiondiffBt at 0x000001A404001F28>,,,,,,,,,,,,003,001,2022_Jun_13_1245,2leo,2021.2.3,60.01006968952248,
3,3,Plan one week of vacation,Stimuli/3A1t.jpg,Stimuli/3A2t.jpg,Stimuli/3A3t.jpg,Stimuli/3B1t.jpg,Stimuli/3B2t.jpg,Stimuli/3B3t.jpg,Stimuli/3C1t.jpg,Stimuli/3C2t.jpg,Stimuli/3C3t.jpg,0,1,1,1,,,,,,,,,,,,203.69951519999995,None,204.69934589999866,None,210.6992812999997,None,"[-0.377, 0.138]","[0.066, -0.395]","[0.306, 0.255]","[-0.378, -0.136]","[0.304, -0.26]","[0.07, 0.393]","[-0.2, 0.346]","[-0.203, -0.347]","[0.399, -0.003]",216.7945533000002,46.161357080003654,13.644484580005155,6.378457680004431,"[-0.18425925925925926, 0.2777777777777778, -0.14351851851851852, -0.1814814814814815, -0.3425925925925926, -0.3490740740740741]","[0.3314814814814815, -0.262037037037037, -0.3509259259259259, -0.3509259259259259, -0.14722222222222223, -0.14166666666666666]","[1, 1, 1, 1, 1, 1]","[0, 0, 0, 0, 0, 0]","[0, 0, 0, 0, 0, 0]","[6.375584000001254, 13.641797100000986, 15.858272900000884, 16.875027400001272, 21.992005199999767, 22.725002799999857]",0.001932580003995099,46.15949728000487,['A2'],['B2'],['C1'],['blue'],['salmon'],['yellow'],263.4144534999996,None,8.0,4.8459737000011955,263.4144534999996,None,287.2473508999992,None,4.0,11.515116999999009,270.2142621999992,None,10.0,8.431019299998297,278.2472354999991,None,8.0,8.731780699999945,<function functionImportanceAt at 0x000001A46C669840>,<function functionImportanceCt at 0x000001A46C529D90>,<function functionImportanceBt at 0x000001A46C669D08>,311.7133127999987,None,4.0,5.3478567999991355,1.0,8.431019299998297,4.0,7.231138200000714,<function functiondiffBt at 0x000001A404001268>,<function functiondiffAt at 0x000001A4040011E0>,<function functiondiffCt at 0x000001A404001158>,,,,,,,,,,,,003,001,2022_Jun_13_1245,2leo,2021.2.3,60.01006968952248,
3,13,Plan a romantic date this weekend,Stimuli/13A1.jpg,Stimuli/13A2.jpg,Stimuli/13A3.jpg,Stimuli/13B1.jpg,Stimuli/13B2.jpg,Stimuli/13B3.jpg,Stimuli/13C1.jpg,Stimuli/13C2.jpg,Stimuli/13C3.jpg,,,,,0,0,0,13,,,,,,,,364.9922654999991,None,365.97861379999995,None,371.97852689999854,None,"[0.07, 0.393]","[-0.378, -0.136]","[0.304, -0.26]","[0.306, 0.255]","[-0.377, 0.138]","[0.066, -0.395]","[0.399, -0.003]","[-0.2, 0.346]","[-0.203, -0.347]",,19.563377579999724,16.146981379999488,9.564081579999765,"[-0.24814814814814815, -0.3888888888888889, 0.10925925925925926]","[-0.3194444444444444, 0.11944444444444445, 0.41759259259259257]","[1, 1, 1]","[0, 0, 0]","[0, 0, 0]","[9.562865599998986, 16.14612599999964, 19.562912499999584]",5.25800005561905e-05,19.56270028000108,['A1'],['B2'],['C3'],['blue'],['salmon'],['yellow'],393.29430649999995,None,9.0,5.762328699998761,393.29430649999995,None,413.3439282999989,None,1.0,6.248138399998425,406.960733599999,None,9.0,6.348192100000233,399.1777213999994,None,5.0,7.747937100000854,<function functionImportanceC at 0x000001A4049A5400>,<function functionImportanceA at 0x000001A46C669BF8>,<function functionImportanceB at 0x000001A4040017B8>,,,2.0,6.348192100000233,2.0,6.164482500000304,2.0,4.464083400000163,<function functiondiffB at 0x000001A404001400>,<function functiondiffA at 0x000001A4040010D0>,<function functiondiffC at 0x000001A404001598>,316.1298958999996,None,316.1298958999996,None,373.2478291999996,419.5105273999998,None,423.97695849999945,None,430.1603275999987,None,003,001,2022_Jun_13_1245,2leo,2021.2.3,60.01006968952248,
3,38,Plan how you want to go for a run,Stimuli/38A1.jpg,Stimuli/38A2.jpg,Stimuli/38A3.jpg,Stimuli/38B1.jpg,Stimuli/38B2.jpg,Stimuli/38B3.jpg,Stimuli/38C1.jpg,Stimuli/38C2.jpg,Stimuli/38C3.jpg,,,,,0,1,1,38,,,,,,,,435.4100714999986,None,436.4098844,None,442.41003569999884,None,"[0.304, -0.26]","[0.07, 0.393]","[-0.378, -0.136]","[0.066, -0.395]","[0.306, 0.255]","[-0.377, 0.138]","[-0.203, -0.347]","[0.399, -0.003]","[-0.2, 0.346]",,15.202034220001224,21.48567292000007,10.052556320000804,"[0.42962962962962964, -0.35185185185185186, -0.35185185185185186]","[0.017592592592592594, -0.14907407407407408, 0.17962962962962964]","[1, 1, 1]","[0, 0, 0]","[0, 0, 0]","[10.040726799999902, 15.190626300000076, 21.4740469999997]",0.010771720000775531,21.48451552000006,['A3'],['B3'],['C2'],['salmon'],['blue'],['yellow'],465.59234599999945,None,9.0,5.4634490000007645,465.59234599999945,None,476.7257054999991,None,2.0,6.031428600001163,482.77553589999843,None,10.0,6.381475800000771,471.20908569999847,None,6.0,5.580706500000815,<function functionImportanceC at 0x000001A4049A5730>,<function functionImportanceB at 0x000001A4049A5EA0>,<function functionImportanceA at 0x000001A4049A5F28>,,,2.0,6.381475800000771,4.0,4.914483099999416,2.0,2.9976710000009916,<function functiondiffC at 0x000001A4040018C8>,<function functiondiffB at 0x000001A460616158>,<function functiondiffA at 0x000001A46996C8C8>,,,,,443.6346453999995,493.0919106000001,None,496.10824429999957,None,489.15877349999937,None,003,001,2022_Jun_13_1245,2leo,2021.2.3,60.01006968952248,
3,20,Plan a tea party with your friends,Stimuli/20A1.jpg,Stimuli/20A2.jpg,Stimuli/20A3.jpg,Stimuli/20B1.jpg,Stimuli/20B2.jpg,Stimuli/20B3.jpg,Stimuli/20C1.jpg,Stimuli/20C2.jpg,Stimuli/20C3.jpg,,,,,0,2,2,20,,,,,,,,500.54172560000006,None,501.5415877999985,None,507.5415901999986,None,"[0.304, -0.26]","[0.07, 0.393]","[-0.378, -0.136]","[0.066, -0.395]","[0.306, 0.255]","[-0.377, 0.138]","[-0.203, -0.347]","[0.399, -0.003]","[-0.2, 0.346]",,5.515671500004828,9.632323500001803,12.282698300004995,"[0.06666666666666667, 0.03333333333333333, -0.13055555555555556]","[0.3768518518518518, -0.4166666666666667, -0.36203703703703705]","[1, 1, 1]","[0, 0, 0]","[0, 0, 0]","[5.508707100001629, 9.625202999999601, 12.275278699999035]",0.006438800002797507,12.281662300003518,['A2'],['B1'],['C1'],['salmon'],['yellow'],['blue'],523.9075470000007,None,9.0,4.780473800001346,523.9075470000007,None,535.411446199998,None,7.0,8.88160710000011,528.7742954999976,None,10.0,4.197716099999525,541.8739512000011,None,3.0,4.531596600001649,<function functionImportanceA at 0x000001A4049A5620>,<function functionImportanceB at 0x000001A4049A5158>,<function functionImportanceC at 0x000001A402265620>,,,3.0,4.197716099999525,0.0,3.9643434999998135,2.0,5.197450800002116,<function functiondiffC at 0x000001A404001C80>,<function functiondiffB at 0x000001A404001840>,<function functiondiffA at 0x000001A4049A57B8>,,,,,511.1627131999994,550.557098700001,None,555.2069075999989,None,546.3904715999979,None,003,001,2022_Jun_13_1245,2leo,2021.2.3,60.01006968952248,
3,2,Plan which ingredients you want to use for cooking dinner today,Stimuli/2A1.jpg,Stimuli/2A2.jpg,Stimuli/2A3.jpg,Stimuli/2B1.jpg,Stimuli/2B2.jpg,Stimuli/2B3.jpg,Stimuli/2C1.jpg,Stimuli/2C2.jpg,Stimuli/2C3.jpg,,,,,0,3,3,2,,,,,,,,558.6900479999986,None,559.6901185999977,None,565.6899962999978,None,"[0.304, -0.26]","[0.07, 0.393]","[-0.378, -0.136]","[0.066, -0.395]","[0.306, 0.255]","[-0.377, 0.138]","[-0.203, -0.347]","[0.399, -0.003]","[-0.2, 0.346]",,15.486919940001826,10.421073240002443,6.654467440002918,"[-0.16018518518518518, -0.31203703703703706, 0.026851851851851852]","[0.37777777777777777, 0.1712962962962963, 0.3787037037037037]","[1, 1, 1]","[0, 0, 0]","[0, 0, 0]","[6.638258899998618, 10.405096999998932, 15.47121369999877]",0.015115840000362368,15.486242540002422,['A2'],['B3'],['C3'],['salmon'],['blue'],['yellow'],587.7392654999985,None,10.0,2.730434900000546,587.7392654999985,None,602.605738799999,None,3.0,9.598332100002153,610.0052048999987,None,3.0,4.948257500000182,591.1391586000009,None,7.0,8.69758290000027,<function functionImportanceC at 0x000001A402265048>,<function functionImportanceB at 0x000001A4049A5B70>,<function functionImportanceA at 0x000001A404001620>,,,2.0,4.948257500000182,2.0,6.547575299999153,3.0,5.030799599997408,<function functiondiffB at 0x000001A4049A5840>,<function functiondiffA at 0x000001A404001B70>,<function functiondiffC at 0x000001A402265AE8>,,,,,571.8026571999999,614.6554331999996,None,619.1717955000004,None,625.5883878000004,None,003,001,2022_Jun_13_1245,2leo,2021.2.3,60.01006968952248,
3,8,Plan the interior of your living-room ,Stimuli/8A1.jpg,Stimuli/8A2.jpg,Stimuli/8A3.jpg,Stimuli/8B1.jpg,Stimuli/8B2.jpg,Stimuli/8B3.jpg,Stimuli/8C1.jpg,Stimuli/8C2.jpg,Stimuli/8C3.jpg,,,,,0,4,4,8,,,,,,,,628.6383144999982,None,629.6382728999979,None,635.6381624999976,None,"[0.066, -0.395]","[0.306, 0.255]","[-0.377, 0.138]","[-0.203, -0.347]","[0.399, -0.003]","[-0.2, 0.346]","[0.304, -0.26]","[0.07, 0.393]","[-0.378, -0.136]",,11.19435634000547,21.67874354000378,26.461475840002095,"[0.03148148148148148, 0.33611111111111114]","[-0.3435185185185185, -0.028703703703703703]","[1, 1]","[0, 0]","[0, 0]","[11.182127199997922, 21.681688499997108]",0.01181524000276113,26.459918440003094,['A1'],['B2'],['C2'],['salmon'],['yellow'],['blue'],667.487167199999,None,6.0,2.812964299999294,667.487167199999,None,672.2369359999993,None,9.0,7.164182399999845,683.8367546999998,None,9.0,3.2321707000010065,679.5037131000008,None,9.0,6.231560099997296,<function functionImportanceB at 0x000001A402265D90>,<function functionImportanceC at 0x000001A402265158>,<function functionImportanceA at 0x000001A402265E18>,,,3.0,3.2321707000010065,9.0,3.7481639000034193,6.0,4.215794199997617,<function functiondiffA at 0x000001A402265400>,<function functiondiffC at 0x000001A402265D08>,<function functiondiffB at 0x000001A4022651E0>,,,,,640.5725000000002,696.0197342999982,None,687.0202098999998,None,691.3535078000004,None,003,001,2022_Jun_13_1245,2leo,2021.2.3,60.01006968952248,
3,35,Plan how you want to do your grocery shopping ,Stimuli/35A1.jpg,Stimuli/35A2.jpg,Stimuli/35A3.jpg,Stimuli/35B1.jpg,Stimuli/35B2.jpg,Stimuli/35B3.jpg,Stimuli/35C1.jpg,Stimuli/35C2.jpg,Stimuli/35C3.jpg,,,,,0,5,5,35,,,,,,,,699.2362343999976,None,700.236354300001,None,706.2364814000011,None,"[0.399, -0.003]","[-0.2, 0.346]","[-0.203, -0.347]","[0.306, 0.255]","[-0.377, 0.138]","[0.066, -0.395]","[0.07, 0.393]","[-0.378, -0.136]","[0.304, -0.26]",,12.780214579997846,21.613584679998894,16.91430907999893,"[-0.11018518518518519, -0.14907407407407408, 0.37962962962962965, 0.3333333333333333]","[0.33425925925925926, 0.32592592592592595, -0.2518518518518518, 0.27314814814814814]","[1, 1, 1, 1]","[0, 0, 0, 0]","[0, 0, 0, 0]","[12.779635200000484, 13.396315000001778, 16.91313319999972, 21.612784900000406]",7.827999797882512e-05,21.61282177999965,['A2'],['B1'],['C3'],['salmon'],['blue'],['yellow'],729.6022156999989,None,7.0,2.513355600000068,729.6022156999989,None,732.3022510999999,None,10.0,5.780927899999369,740.7186515999983,None,8.0,4.666677400000481,738.0363606999981,None,10.0,2.698639100002765,<function functionImportanceB at 0x000001A402265B70>,<function functionImportanceC at 0x000001A402265268>,<function functionImportanceA at 0x000001A402265BF8>,,,0.0,4.666677400000481,3.0,3.81248240000059,0.0,3.664853199999925,<function functiondiffA at 0x000001A4049A5AE8>,<function functiondiffC at 0x000001A45A6F40D0>,<function functiondiffB at 0x000001A4049A5D90>,,,,,707.505504499999,753.618367000001,None,745.3515874999994,None,749.1850527000006,None,003,001,2022_Jun_13_1245,2leo,2021.2.3,60.01006968952248,
3,16,Plan a delicious cake for the birthday of a friend,Stimuli/16A1.jpg,Stimuli/16A2.jpg,Stimuli/16A3.jpg,Stimuli/16B1.jpg,Stimuli/16B2.jpg,Stimuli/16B3.jpg,Stimuli/16C1.jpg,Stimuli/16C2.jpg,Stimuli/16C3.jpg,,,,,0,6,6,16,,,,,,,,756.7848709000009,None,757.7848627000003,None,763.7848771000008,None,"[-0.203, -0.347]","[-0.2, 0.346]","[0.399, -0.003]","[0.066, -0.395]","[-0.377, 0.138]","[0.306, 0.255]","[0.304, -0.26]","[-0.378, -0.136]","[0.07, 0.393]",,26.63337478000176,39.00000948000161,36.100656779999554,"[-0.14537037037037037, -0.37037037037037035, 0.3138888888888889]","[0.32314814814814813, -0.18518518518518517, 0.2518518518518518]","[1, 1, 1]","[0, 0, 0]","[0, 0, 0]","[26.630265100000543, 36.0970613999998, 38.996556099999]",0.002598580002086237,38.99887497999953,['A2'],['B3'],['C2'],['blue'],['yellow'],['salmon'],804.7002324999976,None,3.0,4.6463780000012775,804.7002324999976,None,814.0002987999997,None,4.0,4.9484210000009625,809.4168541999989,None,8.0,4.348176499999681,818.8191089999982,None,6.0,2.8483875000019907,<function functionImportanceA at 0x000001A402265488>,<function functionImportanceB at 0x000001A402265378>,<function functionImportanceC at 0x000001A4049A52F0>,,,2.0,4.348176499999681,6.0,3.231109899999865,7.0,5.180644199997914,<function functiondiffB at 0x000001A4049A5D08>,<function functiondiffA at 0x000001A4049A5510>,<function functiondiffC at 0x000001A4049A5BF8>,,,,,765.2349287999987,821.6330952000008,None,826.783120099999,None,830.0497022,None,003,001,2022_Jun_13_1245,2leo,2021.2.3,60.01006968952248,
3,19,Plan how you want your garden to look like,Stimuli/19A1.jpg,Stimuli/19A2.jpg,Stimuli/19A3.jpg,Stimuli/19B1.jpg,Stimuli/19B2.jpg,Stimuli/19B3.jpg,Stimuli/19C1.jpg,Stimuli/19C2.jpg,Stimuli/19C3.jpg,,,,,0,7,7,19,,,,,,,,833.466142299998,None,834.4662050999996,None,840.4662773,None,"[0.399, -0.003]","[-0.2, 0.346]","[-0.203, -0.347]","[0.07, 0.393]","[-0.378, -0.136]","[0.304, -0.26]","[0.306, 0.255]","[-0.377, 0.138]","[0.066, -0.395]",,12.050577460006025,15.36672436000299,8.183967860004486,"[0.32314814814814813, 0.3712962962962963, 0.03425925925925926]","[0.21481481481481482, 0.000925925925925926, 0.4009259259259259]","[1, 1, 1]","[0, 0, 0]","[0, 0, 0]","[8.167662700001529, 12.050599400001374, 15.350666199999978]",0.015353160004451638,15.365722760005156,['A1'],['B1'],['C1'],['salmon'],['blue'],['yellow'],859.932014,None,9.0,2.513854299999366,859.932014,None,863.6020415000003,None,8.0,5.897268199998507,868.448429099999,None,6.0,7.2655407000020205,877.0816915999985,None,7.0,5.431959499997902,<function functionImportanceB at 0x000001A4049A56A8>,<function functionImportanceA at 0x000001A4049A58C8>,<function functionImportanceC at 0x000001A4049A5E18>,,,2.0,7.2655407000020205,2.0,2.147880800002895,2.0,5.580985600001441,<function functiondiffB at 0x000001A402265A60>,<function functiondiffC at 0x000001A4049A5A60>,<function functiondiffA at 0x000001A404001950>,,,,,844.1177549000004,881.3650065999991,None,890.1480453999993,None,887.0980383999977,None,003,001,2022_Jun_13_1245,2leo,2021.2.3,60.01006968952248,
3,36,Plan your shopping for new clothing,Stimuli/36A1.jpg,Stimuli/36A2.jpg,Stimuli/36A3.jpg,Stimuli/36B1.jpg,Stimuli/36B2.jpg,Stimuli/36B3.jpg,Stimuli/36C1.jpg,Stimuli/36C2.jpg,Stimuli/36C3.jpg,,,,,0,8,8,36,,,,,,,,891.8147506999976,None,892.8147125999985,None,898.8146806999994,None,"[-0.377, 0.138]","[0.306, 0.255]","[0.066, -0.395]","[-0.2, 0.346]","[0.399, -0.003]","[-0.203, -0.347]","[-0.378, -0.136]","[0.07, 0.393]","[0.304, -0.26]",,30.133085120000032,16.78387551999913,24.617550920000212,"[-0.17037037037037037, -0.005555555555555556, 0.06944444444444445]","[-0.32407407407407407, 0.35833333333333334, -0.37592592592592594]","[1, 1, 1]","[0, 0, 0]","[0, 0, 0]","[16.782124600002135, 24.615643100001762, 30.131573300001037]",0.000910920000023907,30.13223371999993,['A3'],['B3'],['C2'],['blue'],['salmon'],['yellow'],930.5802877000006,None,5.0,3.4968684000014036,930.5802877000006,None,939.7966689000004,None,6.0,5.765103900001122,934.1469497999988,None,6.0,5.614460099997814,945.6132024999988,None,3.0,3.331803299999592,<function functionImportanceA at 0x000001A4022650D0>,<function functionImportanceB at 0x000001A402265510>,<function functionImportanceC at 0x000001A4022656A8>,,,6.0,5.614460099997814,6.0,4.214565599999332,6.0,4.79762970000229,<function functiondiffB at 0x000001A4049A5C80>,<function functiondiffA at 0x000001A402265C80>,<function functiondiffC at 0x000001A4049A5268>,,,,,899.9630553000006,948.8798812000005,None,953.696531399999,None,957.9131045999984,None,003,001,2022_Jun_13_1245,2leo,2021.2.3,60.01006968952248,
3,9,Plan a picnic with friends,Stimuli/9A1.jpg,Stimuli/9A2.jpg,Stimuli/9A3.jpg,Stimuli/9B1.jpg,Stimuli/9B2.jpg,Stimuli/9B3.jpg,Stimuli/9C1.jpg,Stimuli/9C2.jpg,Stimuli/9C3.jpg,,,,,0,9,9,9,,,,,,,,961.7794482000008,None,962.7803158999977,None,968.7794812000011,None,"[0.304, -0.26]","[-0.378, -0.136]","[0.07, 0.393]","[-0.203, -0.347]","[-0.2, 0.346]","[0.399, -0.003]","[0.066, -0.395]","[-0.377, 0.138]","[0.306, 0.255]",,8.3282565000045,7.12834620000649,16.09635380000691,"[-0.2, 0.2712962962962963, -0.29814814814814816]","[-0.37592592592592594, -0.24351851851851852, 0.14166666666666666]","[1, 1, 1]","[0, 0, 0]","[0, 0, 0]","[7.121242299999722, 8.321412000001146, 16.08886110000094]",0.0064234000055876095,16.094332900003792,['A1'],['B1'],['C2'],['blue'],['salmon'],['yellow'],990.7286943999989,None,6.0,2.495908499997313,990.7286943999989,None,994.5648429999983,None,7.0,7.930910200000653,1008.064528500001,None,8.0,6.865373600001476,1002.6971362999993,None,6.0,5.298484299997654,<function functionImportanceB at 0x000001A4049A5598>,<function functionImportanceC at 0x000001A400327048>,<function functionImportanceA at 0x000001A4022659D8>,,,6.0,6.865373600001476,1.0,3.647832099999505,2.0,5.147556899999472,<function functiondiffC at 0x000001A400327598>,<function functiondiffA at 0x000001A4022657B8>,<function functiondiffB at 0x000001A4049A5048>,,,,,974.1755095999997,1022.0113958999991,None,1018.4115139000005,None,1013.8780887999983,None,003,001,2022_Jun_13_1245,2leo,2021.2.3,60.01006968952248,
3,10,Plan a restaurant visit with your family on the weekend ,Stimuli/10A1.jpg,Stimuli/10A2.jpg,Stimuli/10A3.jpg,Stimuli/10B1.jpg,Stimuli/10B2.jpg,Stimuli/10B3.jpg,Stimuli/10C1.jpg,Stimuli/10C2.jpg,Stimuli/10C3.jpg,,,,,0,10,10,10,,,,,,,,1026.2945492999988,None,1027.294252499998,None,1033.2943933000006,None,"[0.066, -0.395]","[0.306, 0.255]","[-0.377, 0.138]","[-0.203, -0.347]","[0.399, -0.003]","[-0.2, 0.346]","[0.304, -0.26]","[0.07, 0.393]","[-0.378, -0.136]",,24.392711620002956,13.009650620006141,8.743511820004642,"[-0.31203703703703706, -0.22407407407407406, 0.2675925925925926]","[-0.09814814814814815, -0.3685185185185185, 0.2657407407407407]","[1, 1, 1]","[0, 0, 0]","[0, 0, 0]","[8.73614599999928, 13.002704200000153, 24.38594970000122]",0.00622792000285699,24.391942720005318,['A2'],['B1'],['C3'],['salmon'],['blue'],['yellow'],1062.260144599999,None,3.0,2.497159999998985,1062.260144599999,None,1067.646698300001,None,8.0,9.996224200000142,1074.9929448999992,None,8.0,4.181839900000341,1079.0598078999992,None,9.0,2.898665400000027,<function functionImportanceB at 0x000001A400327378>,<function functionImportanceA at 0x000001A4003276A8>,<function functionImportanceC at 0x000001A400327400>,,,1.0,4.181839900000341,7.0,5.880948500001978,8.0,4.8648003000016615,<function functiondiffA at 0x000001A4049A5950>,<function functiondiffC at 0x000001A402265840>,<function functiondiffB at 0x000001A402265950>,,,,,1037.404338800001,1091.9596146999993,None,1081.9597659999981,None,1087.8261335000007,None,003,001,2022_Jun_13_1245,2leo,2021.2.3,60.01006968952248,
3,14,Plan your own Pizza for dinner,Stimuli/14A1.jpg,Stimuli/14A2.jpg,Stimuli/14A3.jpg,Stimuli/14B1.jpg,Stimuli/14B2.jpg,Stimuli/14B3.jpg,Stimuli/14C1.jpg,Stimuli/14C2.jpg,Stimuli/14C3.jpg,,,,,0,11,11,14,,,,,,,,1095.575793099999,None,1096.5759170000001,None,1102.575902399998,None,"[-0.203, -0.347]","[0.399, -0.003]","[-0.2, 0.346]","[0.304, -0.26]","[0.07, 0.393]","[-0.378, -0.136]","[0.066, -0.395]","[0.306, 0.255]","[-0.377, 0.138]",,10.281442160001461,5.7154001600029005,13.664682360002189,"[0.3148148148148148, 0.35648148148148145, 0.07407407407407407]","[-0.25092592592592594, 0.04814814814814815, -0.37037037037037035]","[1, 1, 1]","[0, 0, 0]","[0, 0, 0]","[5.706315499999619, 10.27252260000023, 13.655335600000399]",0.008411160000832751,13.663585060003243,['A2'],['B1'],['C1'],['salmon'],['yellow'],['blue'],1117.9083238000003,None,4.0,3.347211399999651,1117.9083238000003,None,1121.4418772000008,None,1.0,5.4810717000000295,1130.674909200001,None,2.0,5.1320305000008375,1126.8083189000008,None,10.0,3.8314404000011564,<function functionImportanceB at 0x000001A400327268>,<function functionImportanceC at 0x000001A400327840>,<function functionImportanceA at 0x000001A4003279D8>,,,1.0,5.1320305000008375,5.0,3.0641278000002785,5.0,4.414554399998451,<function functiondiffC at 0x000001A400327620>,<function functiondiffB at 0x000001A400327158>,<function functiondiffA at 0x000001A400327D90>,,,,,1103.7674906999982,1140.991622399999,None,1145.4079416999975,None,1135.7914598999978,None,003,001,2022_Jun_13_1245,2leo,2021.2.3,60.01006968952248,
3,32,Plan how you want to relax after a workday,Stimuli/32A1.jpg,Stimuli/32A2.jpg,Stimuli/32A3.jpg,Stimuli/32B1.jpg,Stimuli/32B2.jpg,Stimuli/32B3.jpg,Stimuli/32C1.jpg,Stimuli/32C2.jpg,Stimuli/32C3.jpg,,,,,0,12,12,32,,,,,,,,1147.9913206,None,1148.9912486999983,None,1154.9915670999999,None,"[0.304, -0.26]","[-0.378, -0.136]","[0.07, 0.393]","[-0.203, -0.347]","[-0.2, 0.346]","[0.399, -0.003]","[0.066, -0.395]","[-0.377, 0.138]","[0.306, 0.255]",,18.306580100001156,14.106758000001719,22.50714880000305,"[-0.14166666666666666, -0.35, -0.3212962962962963]","[-0.31574074074074077, -0.1527777777777778, 0.1648148148148148]","[1, 1, 1]","[0, 0, 0]","[0, 0, 0]","[14.090751400002773, 18.29071350000231, 22.49081330000263]",0.015316300003178185,22.505831600003148,['A2'],['B1'],['C2'],['salmon'],['yellow'],['blue'],1180.9733533999988,None,9.0,2.8298825999991095,1180.9733533999988,None,1188.6902107000005,None,6.0,4.698432199998933,1193.7067748999998,None,7.0,6.031443399999262,1183.8737868999979,None,4.0,4.014228699998057,<function functionImportanceC at 0x000001A400327B70>,<function functionImportanceB at 0x000001A400327E18>,<function functionImportanceA at 0x000001A4022652F0>,,,2.0,6.031443399999262,1.0,5.247750899998209,1.0,3.5646505000004254,<function functiondiffB at 0x000001A4003277B8>,<function functiondiffA at 0x000001A4003272F0>,<function functiondiffC at 0x000001A400327730>,,,,,1158.0172823999983,1198.8063825000008,None,1202.5793753999988,None,1207.4731630999977,None,003,001,2022_Jun_13_1245,2leo,2021.2.3,60.01006968952248,
3,24,Plan your Monday morning on a workday ,Stimuli/24A1.jpg,Stimuli/24A2.jpg,Stimuli/24A3.jpg,Stimuli/24B1.jpg,Stimuli/24B2.jpg,Stimuli/24B3.jpg,Stimuli/24C1.jpg,Stimuli/24C2.jpg,Stimuli/24C3.jpg,,,,,0,13,13,24,,,,,,,,1209.7563874999996,None,1210.7562473999988,None,1216.7563327999978,None,"[0.07, 0.393]","[-0.378, -0.136]","[0.304, -0.26]","[0.399, -0.003]","[-0.2, 0.346]","[-0.203, -0.347]","[0.306, 0.255]","[-0.377, 0.138]","[0.066, -0.395]",,16.83712491999904,7.3546083199980785,29.387515520000306,"[-0.1287037037037037, 0.06574074074074074, 0.2740740740740741]","[-0.287962962962963, 0.40925925925925927, 0.22685185185185186]","[1, 1, 1]","[0, 0, 0]","[0, 0, 0]","[7.342458099999931, 16.82545829999799, 29.375326499997755]",0.01126081999973394,29.38629002000016,['A1'],['B3'],['C1'],['blue'],['yellow'],['salmon'],1247.755168400001,None,2.0,2.130579399999988,1247.755168400001,None,1258.5883215999984,None,2.0,3.548454600000696,1262.1548324999985,None,9.0,2.4816982000011194,1249.9553436999977,None,9.0,8.597646500002156,<function functionImportanceC at 0x000001A400327EA0>,<function functionImportanceB at 0x000001A402265F28>,<function functionImportanceA at 0x000001A402265730>,,,9.0,2.4816982000011194,9.0,2.9479506999996374,9.0,3.2147647999991023,<function functiondiffC at 0x000001A4003271E0>,<function functiondiffA at 0x000001A400327BF8>,<function functiondiffB at 0x000001A400327950>,,,,,1217.895179199999,1271.837942600001,None,1268.871343599998,None,1264.6050811000005,None,003,001,2022_Jun_13_1245,2leo,2021.2.3,60.01006968952248,
3,12,Plan the ingredients to mix yourself a cocktail,Stimuli/12A1.jpg,Stimuli/12A2.jpg,Stimuli/12A3.jpg,Stimuli/12B1.jpg,Stimuli/12B2.jpg,Stimuli/12B3.jpg,Stimuli/12C1.jpg,Stimuli/12C2.jpg,Stimuli/12C3.jpg,,,,,0,14,14,12,,,,,,,,1274.5712513999988,None,1275.5712103999995,None,1281.5711962999976,None,"[-0.203, -0.347]","[0.399, -0.003]","[-0.2, 0.346]","[0.304, -0.26]","[0.07, 0.393]","[-0.378, -0.136]","[0.066, -0.395]","[0.306, 0.255]","[-0.377, 0.138]",,2.482282919998397,16.89994251999815,13.532593219999399,"[-0.1962962962962963, -0.17777777777777778, -0.3490740740740741, 0.2916666666666667]","[-0.3472222222222222, 0.31574074074074077, 0.1537037037037037, -0.22870370370370371]","[1, 1, 1, 1]","[0, 0, 0, 0]","[0, 0, 0, 0]","[2.481570300002204, 5.948225100000855, 13.531207100000756, 16.898981000002095]",0.0002971199974126648,16.898344419998466,['A1'],['B1'],['C3'],['salmon'],['yellow'],['blue'],1300.1038972999977,None,3.0,3.2957556000001205,1300.1038972999977,None,1314.1200536999986,None,3.0,3.6648817999994208,1303.4872406999984,None,2.0,6.197938900000736,1309.6704951999982,None,3.0,4.41503090000333,<function functionImportanceA at 0x000001A402265598>,<function functionImportanceC at 0x000001A40088F1E0>,<function functionImportanceB at 0x000001A40088F9D8>,,,6.0,6.197938900000736,1.0,3.2804802999999083,2.0,2.998429399998713,<function functiondiffC at 0x000001A400327D08>,<function functiondiffB at 0x000001A400327C80>,<function functiondiffA at 0x000001A4049A59D8>,,,,,1282.7200298999978,1321.4867384000008,None,1324.5033811999983,None,1317.7702356999998,None,003,001,2022_Jun_13_1245,2leo,2021.2.3,60.01006968952248,
3,6,Plan your wedding,Stimuli/6A1.jpg,Stimuli/6A2.jpg,Stimuli/6A3.jpg,Stimuli/6B1.jpg,Stimuli/6B2.jpg,Stimuli/6B3.jpg,Stimuli/6C1.jpg,Stimuli/6C2.jpg,Stimuli/6C3.jpg,,,,,0,15,15,6,,,,,,,,1353.6692605000007,None,1354.6691798999982,None,1360.6691668000003,None,"[0.306, 0.255]","[-0.377, 0.138]","[0.066, -0.395]","[0.07, 0.393]","[-0.378, -0.136]","[0.304, -0.26]","[0.399, -0.003]","[-0.2, 0.346]","[-0.203, -0.347]",,7.9562987000063,21.073043200005486,18.090093700004218,"[0.25555555555555554, -0.16296296296296298, 0.2824074074074074]","[0.2351851851851852, -0.3138888888888889, -0.2722222222222222]","[1, 1, 1]","[0, 0, 0]","[0, 0, 0]","[7.945329300000594, 18.0784605000008, 21.061648999999306]",0.01055350000387989,21.072132100005547,['A1'],['B3'],['C3'],['yellow'],['salmon'],['blue'],1387.3349003999992,None,9.0,2.597379799997725,1387.3349003999992,None,1391.618315499998,None,3.0,6.814564100001007,1403.1180155999991,None,10.0,3.7485106000021915,1398.0182022999998,None,5.0,5.11503669999729,<function functionImportanceB at 0x000001A4040019D8>,<function functionImportanceC at 0x000001A4022658C8>,<function functionImportanceA at 0x000001A461910E18>,,,8.0,3.7485106000021915,4.0,4.214875199999369,1.0,3.7478448999972898,<function functiondiffC at 0x000001A400327AE8>,<function functiondiffB at 0x000001A4003278C8>,<function functiondiffA at 0x000001A400327488>,,,,,1365.808095399998,1410.5010518,None,1414.1676919000001,None,1406.101313000001,None,003,001,2022_Jun_13_1245,2leo,2021.2.3,60.01006968952248,
3,22,Plan a beach day with your friends,Stimuli/22A1.jpg,Stimuli/22A2.jpg,Stimuli/22A3.jpg,Stimuli/22B1.jpg,Stimuli/22B2.jpg,Stimuli/22B3.jpg,Stimuli/22C1.jpg,Stimuli/22C2.jpg,Stimuli/22C3.jpg,,,,,0,16,16,22,,,,,,,,1417.6009386999995,None,1418.6008950999985,None,1424.600764599998,None,"[0.306, 0.255]","[-0.377, 0.138]","[0.066, -0.395]","[0.399, -0.003]","[-0.2, 0.346]","[-0.203, -0.347]","[0.07, 0.393]","[-0.378, -0.136]","[0.304, -0.26]",,12.183697879998363,2.8508499800009304,6.684679679998226,"[-0.21944444444444444, 0.33240740740740743, 0.08888888888888889]","[0.387037037037037, -0.24166666666666667, -0.3472222222222222]","[1, 1, 1]","[0, 0, 0]","[0, 0, 0]","[2.8488233000025502, 6.682295400001749, 12.181853100002627]",0.0012576799999806099,12.18290737999996,['A3'],['B2'],['C3'],['yellow'],['blue'],['salmon'],1438.4502530000009,None,6.0,2.3136615000003076,1438.4502530000009,None,1440.8670441999984,None,2.0,4.414337900001556,1445.3001734000009,None,2.0,2.9319635999963793,1448.2667235999998,None,2.0,6.415078300000459,<function functionImportanceB at 0x000001A40088FD08>,<function functionImportanceA at 0x000001A40088F7B8>,<function functionImportanceC at 0x000001A40088F510>,,,2.0,2.9319635999963793,2.0,3.5309360999999626,2.0,2.9641413999997894,<function functiondiffC at 0x000001A40088F378>,<function functiondiffA at 0x000001A40088FB70>,<function functiondiffB at 0x000001A40088FF28>,,,,,1425.7839919999988,1461.183038199999,None,1457.616624100001,None,1454.6165345999998,None,003,001,2022_Jun_13_1245,2leo,2021.2.3,60.01006968952248,
3,33,Plan the items to decorate your Christmas tree,Stimuli/33A1.jpg,Stimuli/33A2.jpg,Stimuli/33A3.jpg,Stimuli/33B1.jpg,Stimuli/33B2.jpg,Stimuli/33B3.jpg,Stimuli/33C1.jpg,Stimuli/33C2.jpg,Stimuli/33C3.jpg,,,,,0,17,17,33,,,,,,,,1463.6664088999987,None,1464.6659123000009,None,1470.666280299998,None,"[-0.2, 0.346]","[-0.203, -0.347]","[0.399, -0.003]","[-0.377, 0.138]","[0.066, -0.395]","[0.306, 0.255]","[-0.378, -0.136]","[0.304, -0.26]","[0.07, 0.393]",,15.318016900000657,11.51861270000154,8.168832300001668,"[0.3138888888888889, 0.2972222222222222, -0.15462962962962962]","[-0.19814814814814816, 0.28703703703703703, -0.3287037037037037]","[1, 1, 1]","[0, 0, 0]","[0, 0, 0]","[8.163081399998191, 11.513023799998336, 15.312763299996732]",0.004718600001069717,15.317415000001347,['A2'],['B3'],['C2'],['blue'],['salmon'],['yellow'],1488.1322598999996,None,3.0,3.4301716000009037,1488.1322598999996,None,1491.6156284000008,None,2.0,3.4314998000008927,1495.5839355999979,None,2.0,3.514829700001428,1498.6321431999986,None,3.0,4.131570000001375,<function functionImportanceB at 0x000001A40088F950>,<function functionImportanceA at 0x000001A40088FAE8>,<function functionImportanceC at 0x000001A40088F730>,,,2.0,3.514829700001428,2.0,3.4149494000012055,5.0,3.048217999999906,<function functiondiffC at 0x000001A400327A60>,<function functiondiffB at 0x000001A40088F158>,<function functiondiffA at 0x000001A40088FBF8>,,,,,1472.348299899999,1505.8319027999987,None,1509.0318841999997,None,1502.7320617999994,None,003,001,2022_Jun_13_1245,2leo,2021.2.3,60.01006968952248,
3,15,Plan your own Pasta for lunch,Stimuli/15A1.jpg,Stimuli/15A2.jpg,Stimuli/15A3.jpg,Stimuli/15B1.jpg,Stimuli/15B2.jpg,Stimuli/15B3.jpg,Stimuli/15C1.jpg,Stimuli/15C2.jpg,Stimuli/15C3.jpg,,,,,0,18,18,15,,,,,,,,1511.8315515999984,None,1512.831554399998,None,1518.8315319999983,None,"[0.306, 0.255]","[-0.377, 0.138]","[0.066, -0.395]","[0.399, -0.003]","[-0.2, 0.346]","[-0.203, -0.347]","[0.07, 0.393]","[-0.378, -0.136]","[0.304, -0.26]",,14.897051519998058,10.480754619995423,5.914524619995063,"[0.33796296296296297, -0.21944444444444444, -0.35555555555555557]","[-0.26481481481481484, 0.37037037037037035, 0.2]","[1, 1, 1]","[0, 0, 0]","[0, 0, 0]","[5.909644200000912, 10.476220900000044, 14.892767500001355]",0.003772619995288551,14.896274319995428,['A2'],['B2'],['C3'],['yellow'],['blue'],['salmon'],1536.1143427999978,None,5.0,2.863445300001331,1536.1143427999978,None,1543.8976626999993,None,8.0,3.515121399999771,1539.1477851,None,6.0,4.848021900001186,1548.1309216999998,None,10.0,3.3483116999996128,<function functionImportanceA at 0x000001A400327F28>,<function functionImportanceB at 0x000001A400DB70D0>,<function functionImportanceC at 0x000001A400DB7730>,,,0.0,4.848021900001186,3.0,4.864532200001122,1.0,4.529362900000706,<function functiondiffA at 0x000001A40088FEA0>,<function functiondiffC at 0x000001A4003270D0>,<function functiondiffB at 0x000001A4049A5378>,,,,,1520.7515232999995,1558.3805460999993,None,1550.7808170000008,None,1555.7973144999978,None,003,001,2022_Jun_13_1245,2leo,2021.2.3,60.01006968952248,
3,27,Plan what festival to visit with your friends,Stimuli/27A1.jpg,Stimuli/27A2.jpg,Stimuli/27A3.jpg,Stimuli/27B1.jpg,Stimuli/27B2.jpg,Stimuli/27B3.jpg,Stimuli/27C1.jpg,Stimuli/27C2.jpg,Stimuli/27C3.jpg,,,,,0,19,19,27,,,,,,,,1562.4304623999979,None,1563.4302320000006,None,1569.430338199998,None,"[-0.378, -0.136]","[0.07, 0.393]","[0.304, -0.26]","[-0.2, 0.346]","[0.399, -0.003]","[-0.203, -0.347]","[-0.377, 0.138]","[0.306, 0.255]","[0.066, -0.395]",,16.474784919999365,11.225658719999046,7.925749319998431,"[0.07314814814814814, -0.175, 0.33425925925925926]","[-0.34074074074074073, -0.34074074074074073, -0.25092592592592594]","[1, 1, 1]","[0, 0, 0]","[0, 0, 0]","[7.91955329999837, 11.219693600000028, 16.469098599998688]",0.005101120001199888,16.474137619999965,['A3'],['B3'],['C3'],['salmon'],['yellow'],['blue'],1587.529536699998,None,7.0,2.9309188000006543,1587.529536699998,None,1598.2628273999999,None,3.0,5.73157910000009,1590.5130864000002,None,9.0,3.8978295999986585,1594.462953799999,None,7.0,3.815176699998119,<function functionImportanceA at 0x000001A40088FA60>,<function functionImportanceC at 0x000001A400DB72F0>,<function functionImportanceB at 0x000001A400DB7268>,,,5.0,3.8978295999986585,0.0,5.231229099998018,1.0,3.598028600001271,<function functiondiffC at 0x000001A400DB7400>,<function functiondiffA at 0x000001A40088F840>,<function functiondiffB at 0x000001A40088FE18>,,,,,1570.5747637999975,1612.862222499998,None,1607.6125736999984,None,1603.9960589999991,None,003,001,2022_Jun_13_1245,2leo,2021.2.3,60.01006968952248,
3,40,Plan to see a sports event ,Stimuli/40A1.jpg,Stimuli/40A2.jpg,Stimuli/40A3.jpg,Stimuli/40B1.jpg,Stimuli/40B2.jpg,Stimuli/40B3.jpg,Stimuli/40C1.jpg,Stimuli/40C2.jpg,Stimuli/40C3.jpg,,,,,0,20,20,40,,,,,,,,1615.9788250000001,None,1616.9789621,None,1622.9788002999976,None,"[-0.377, 0.138]","[0.306, 0.255]","[0.066, -0.395]","[-0.2, 0.346]","[0.399, -0.003]","[-0.203, -0.347]","[-0.378, -0.136]","[0.07, 0.393]","[0.304, -0.26]",,26.047895900002914,10.832215400005225,16.28226490000452,"[-0.19166666666666668, 0.3638888888888889, -0.29259259259259257]","[0.37592592592592594, -0.25277777777777777, 0.13425925925925927]","[1, 1, 1]","[0, 0, 0]","[0, 0, 0]","[10.821920999998838, 16.271574999998847, 26.03784160000214]",0.009626500002923422,26.047419800004718,['A1'],['B1'],['C3'],['blue'],['salmon'],['yellow'],1650.8279215999992,None,2.0,2.130493500000739,1650.8279215999992,None,1659.3780423999979,None,9.0,3.3152771999994,1656.2613397000005,None,9.0,2.9820832000004884,1653.0279729999984,None,9.0,3.1973226000009163,<function functionImportanceC at 0x000001A400DB7950>,<function functionImportanceA at 0x000001A400DB7840>,<function functionImportanceB at 0x000001A400DB7C80>,,,7.0,2.9820832000004884,7.0,3.8477602999992087,2.0,5.147782899999584,<function functiondiffB at 0x000001A400DB7048>,<function functiondiffC at 0x000001A400DB7D90>,<function functiondiffA at 0x000001A402265EA0>,,,,,1624.306851299998,1662.5777419999995,None,1670.761168799998,None,1667.7111062999993,None,003,001,2022_Jun_13_1245,2leo,2021.2.3,60.01006968952248,
3,4,Plan a game night at your place,Stimuli/4A1.jpg,Stimuli/4A2.jpg,Stimuli/4A3.jpg,Stimuli/4B1.jpg,Stimuli/4B2.jpg,Stimuli/4B3.jpg,Stimuli/4C1.jpg,Stimuli/4C2.jpg,Stimuli/4C3.jpg,,,,,0,21,21,4,,,,,,,,1674.1272891999997,None,1675.1273318000003,None,1681.1274711999995,None,"[-0.203, -0.347]","[0.399, -0.003]","[-0.2, 0.346]","[0.066, -0.395]","[0.306, 0.255]","[-0.377, 0.138]","[0.304, -0.26]","[0.07, 0.393]","[-0.378, -0.136]",,7.610330180003075,16.89393408000251,12.344624980003573,"[-0.16944444444444445, -0.36018518518518516, -0.34814814814814815]","[-0.325, -0.18425925925925926, 0.18333333333333332]","[1, 1, 1]","[0, 0, 0]","[0, 0, 0]","[7.60739889999968, 12.340900999999576, 16.890556900001684]",0.0025247800003853627,16.89290988000357,['A1'],['B3'],['C3'],['yellow'],['salmon'],['blue'],1701.8765216999982,None,8.0,3.5801616000026115,1701.8765216999982,None,1710.9598915999977,None,3.0,3.2485914999997476,1706.5109446000006,None,3.0,5.447646500000701,1715.5620627999979,None,6.0,5.448645299999043,<function functionImportanceA at 0x000001A400DB78C8>,<function functionImportanceB at 0x000001A400DB7488>,<function functionImportanceC at 0x000001A400DB7620>,,,6.0,5.447646500000701,2.0,3.6811416999989888,3.0,3.981162800002494,<function functiondiffB at 0x000001A400DB7378>,<function functiondiffA at 0x000001A400DB79D8>,<function functiondiffC at 0x000001A400DB71E0>,,,,,1684.5193849000007,1719.6927254999991,None,1724.0096073999975,None,1727.7428006999999,None,003,001,2022_Jun_13_1245,2leo,2021.2.3,60.01006968952248,
3,17,Plan a day in Barcelona with a friend who is new to the city,Stimuli/17A1.jpg,Stimuli/17A2.jpg,Stimuli/17A3.jpg,Stimuli/17B1.jpg,Stimuli/17B2.jpg,Stimuli/17B3.jpg,Stimuli/17C1.jpg,Stimuli/17C2.jpg,Stimuli/17C3.jpg,,,,,0,22,22,17,,,,,,,,1732.1423376000002,None,1733.1424691999982,None,1739.1423001999992,None,"[-0.2, 0.346]","[0.399, -0.003]","[-0.203, -0.347]","[-0.378, -0.136]","[0.07, 0.393]","[0.304, -0.26]","[-0.377, 0.138]","[0.306, 0.255]","[0.066, -0.395]",,13.826661859999149,5.693911959999241,17.64382445999945,"[-0.32314814814814813, -0.2175925925925926, -0.2898148148148148]","[-0.1638888888888889, 0.3351851851851852, 0.16296296296296298]","[1, 1, 1]","[0, 0, 0]","[0, 0, 0]","[5.678615199998603, 13.811671600000409, 17.628274200000305]",0.014580759998352733,17.6428047599984,['A1'],['B1'],['C1'],['blue'],['salmon'],['yellow'],1758.441653699998,None,4.0,2.1470133000002534,1758.441653699998,None,1764.9418332999976,None,2.0,5.148513599997386,1770.1583956999984,None,4.0,4.465021399999387,1760.6919024,None,2.0,4.264411399999517,<function functionImportanceC at 0x000001A4011AE048>,<function functionImportanceB at 0x000001A40088F048>,<function functionImportanceA at 0x000001A400DB7F28>,,,2.0,4.465021399999387,4.0,3.1812866000000213,1.0,3.4312333000016224,<function functiondiffC at 0x000001A4011AE950>,<function functiondiffA at 0x000001A400DB7BF8>,<function functiondiffB at 0x000001A400DB7510>,,,,,1740.3284918000008,1781.3581523999983,None,1778.158129999998,None,1774.5415053999986,None,003,001,2022_Jun_13_1245,2leo,2021.2.3,60.01006968952248,
3,41,Plan how you want to have dinner tonight ,Stimuli/41A1.jpg,Stimuli/41A2.jpg,Stimuli/41A3.jpg,Stimuli/41B1.jpg,Stimuli/41B2.jpg,Stimuli/41B3.jpg,Stimuli/41C1.jpg,Stimuli/41C2.jpg,Stimuli/41C3.jpg,,,,,0,23,23,41,,,,,,,,1784.3077321,None,1785.3078344000005,None,1791.3077723999977,None,"[0.399, -0.003]","[-0.2, 0.346]","[-0.203, -0.347]","[0.07, 0.393]","[-0.378, -0.136]","[0.304, -0.26]","[0.306, 0.255]","[-0.377, 0.138]","[0.066, -0.395]",,15.695490479996806,5.812498379997123,12.696209279994946,"[0.037037037037037035, 0.2537037037037037, 0.36574074074074076]","[0.37222222222222223, 0.29259259259259257, -0.004629629629629629]","[1, 1, 1]","[0, 0, 0]","[0, 0, 0]","[5.803628099998605, 12.686913300000015, 15.686922400000185]",0.008151679994625738,15.694728479997138,['A1'],['B1'],['C1'],['salmon'],['blue'],['yellow'],1808.8238451999987,None,9.0,1.9803496000022278,1808.8238451999987,None,1810.873871400001,None,10.0,3.9310812000003352,1817.7904268000002,None,10.0,3.2152104000015242,1814.9904385999998,None,7.0,2.9319691000018793,<function functionImportanceB at 0x000001A4011AE6A8>,<function functionImportanceC at 0x000001A4011AE400>,<function functionImportanceA at 0x000001A4011AE488>,,,6.0,3.2152104000015242,0.0,3.264565700003004,-0.0,3.7313323999987915,<function functiondiffA at 0x000001A40088F598>,<function functiondiffC at 0x000001A4011AE0D0>,<function functiondiffB at 0x000001A400DB77B8>,,,,,1792.6537095000003,1828.1902057999996,None,1820.9736358999999,None,1824.2901272,None,003,001,2022_Jun_13_1245,2leo,2021.2.3,60.01006968952248,
3,31,Plan your order at a restaurant    ,Stimuli/31A1.jpg,Stimuli/31A2.jpg,Stimuli/31A3.jpg,Stimuli/31B1.jpg,Stimuli/31B2.jpg,Stimuli/31B3.jpg,Stimuli/31C1.jpg,Stimuli/31C2.jpg,Stimuli/31C3.jpg,,,,,0,24,24,31,,,,,,,,1831.439786099998,None,1832.4399317999978,None,1838.4398801000007,None,"[-0.2, 0.346]","[0.399, -0.003]","[-0.203, -0.347]","[-0.377, 0.138]","[0.306, 0.255]","[0.066, -0.395]","[-0.378, -0.136]","[0.07, 0.393]","[0.304, -0.26]",,24.33775600000081,11.537994599999365,28.203985699998157,"[0.1037037037037037, 0.09444444444444444, 0.2722222222222222, 0.2851851851851852, 0.37222222222222223, -0.36574074074074076]","[-0.3907407407407407, -0.3925925925925926, 0.27314814814814814, 0.23148148148148148, 0.05555555555555555, -0.08703703703703704]","[1, 1, 1, 1, 1, 1]","[0, 0, 0, 0, 0, 0]","[0, 0, 0, 0, 0, 0]","[11.534111199998733, 13.21708949999811, 18.100448799999867, 19.116906799998105, 24.334227599996666, 28.200035699999717]",0.0030262000000220723,28.202867799998785,['A2'],['B3'],['C1'],['yellow'],['salmon'],['blue'],1869.7222893999988,None,6.0,2.9805688000014925,1869.7222893999988,None,1872.7721810999992,None,9.0,4.8975667000013345,1879.0887295999983,None,10.0,3.998661000001448,1881.7553763999986,None,3.0,3.948726299997361,<function functionImportanceB at 0x000001A4011AEBF8>,<function functionImportanceA at 0x000001A4011AEAE8>,<function functionImportanceC at 0x000001A4011AEA60>,,,4.0,3.998661000001448,2.0,3.8641927000026044,8.0,3.414621800002351,<function functiondiffA at 0x000001A4011AE378>,<function functiondiffB at 0x000001A4011AED08>,<function functiondiffC at 0x000001A4011AE268>,,,,,1841.0540113000006,1889.5216984999988,None,1885.9716583999998,None,1892.9551781999999,None,003,001,2022_Jun_13_1245,2leo,2021.2.3,60.01006968952248,
3,3,Plan a movie night with a friend,Stimuli/3A1.jpg,Stimuli/3A2.jpg,Stimuli/3A3.jpg,Stimuli/3B1.jpg,Stimuli/3B2.jpg,Stimuli/3B3.jpg,Stimuli/3C1.jpg,Stimuli/3C2.jpg,Stimuli/3C3.jpg,,,,,0,25,25,3,,,,,,,,1898.0880830999977,None,1899.0882647999988,None,1905.0881062999997,None,"[0.066, -0.395]","[-0.377, 0.138]","[0.306, 0.255]","[-0.203, -0.347]","[-0.2, 0.346]","[0.399, -0.003]","[0.304, -0.26]","[-0.378, -0.136]","[0.07, 0.393]",,13.771448140007124,2.921891340007278,5.738704540006438,"[0.3712962962962963, -0.3888888888888889, -0.3990740740740741]","[-0.002777777777777778, -0.1787037037037037, 0.175]","[1, 1, 1]","[0, 0, 0]","[0, 0, 0]","[2.912100100002135, 5.728764100000262, 13.761999900001683]",0.008942240005126223,13.770578140007274,['A2'],['B3'],['C2'],['blue'],['salmon'],['yellow'],1922.9041813999993,None,6.0,1.7133695000011357,1922.9041813999993,None,1932.1087021000003,None,5.0,4.6149746000010055,1936.0540362999982,None,6.0,4.0487850999998045,1926.3943323000003,None,1.0,6.681058199999825,<function functionImportanceC at 0x000001A4011AEE18>,<function functionImportanceB at 0x000001A400DB7EA0>,<function functionImportanceA at 0x000001A400DB7AE8>,,,1.0,4.0487850999998045,3.0,4.030864500000462,2.0,9.931586900002003,<function functiondiffC at 0x000001A4011AE510>,<function functiondiffB at 0x000001A4011AEC80>,<function functiondiffA at 0x000001A400DB7158>,,,,,1908.6738604000002,1944.2705264999986,None,1953.8368468999997,None,1940.403888499999,None,003,001,2022_Jun_13_1245,2leo,2021.2.3,60.01006968952248,
3,37,Plan your cleaning routine ,Stimuli/37A1.jpg,Stimuli/37A2.jpg,Stimuli/37A3.jpg,Stimuli/37B1.jpg,Stimuli/37B2.jpg,Stimuli/37B3.jpg,Stimuli/37C1.jpg,Stimuli/37C2.jpg,Stimuli/37C3.jpg,,,,,0,26,26,37,,,,,,,,1957.3862503,None,1958.3864513999997,None,1964.3865055999977,None,"[0.07, 0.393]","[0.304, -0.26]","[-0.378, -0.136]","[0.306, 0.255]","[0.066, -0.395]","[-0.377, 0.138]","[0.399, -0.003]","[-0.203, -0.347]","[-0.2, 0.346]",,11.188191419998475,22.55516611999701,25.671704419997695,"[-0.32592592592592595, -0.3592592592592593, 0.39814814814814814]","[-0.08981481481481482, 0.08703703703703704, 0.010185185185185186]","[1, 1, 1]","[0, 0, 0]","[0, 0, 0]","[11.184218200000032, 22.55096229999981, 25.66738130000158]",0.003359319998708088,25.670611819998157,['A3'],['B3'],['C1'],['yellow'],['salmon'],['blue'],1991.6857241999987,None,6.0,3.0640037000011944,1991.6857241999987,None,1994.8524111999996,None,1.0,3.597478100000444,1998.435663899998,None,2.0,8.481609300000855,2006.9687743999984,None,2.0,3.1318114999994577,<function functionImportanceB at 0x000001A4011AEEA0>,<function functionImportanceA at 0x000001A4011AE7B8>,<function functionImportanceC at 0x000001A4011AE8C8>,,,1.0,8.481609300000855,8.0,6.164389800000208,5.0,6.531063400001585,<function functiondiffA at 0x000001A40088F268>,<function functiondiffB at 0x000001A4011AE1E0>,<function functiondiffC at 0x000001A4015A7620>,,,,,1965.5333074999999,2016.2352162999978,None,2010.0519796999997,None,2022.7849193999991,None,003,001,2022_Jun_13_1245,2leo,2021.2.3,60.01006968952248,
3,25,Plan how you want to read a book in your free time ,Stimuli/25A1.jpg,Stimuli/25A2.jpg,Stimuli/25A3.jpg,Stimuli/25B1.jpg,Stimuli/25B2.jpg,Stimuli/25B3.jpg,Stimuli/25C1.jpg,Stimuli/25C2.jpg,Stimuli/25C3.jpg,,,,,0,27,27,25,,,,,,,,2024.9515023000004,None,2025.9515819999997,None,2031.9516410999986,None,"[0.399, -0.003]","[-0.203, -0.347]","[-0.2, 0.346]","[0.306, 0.255]","[0.066, -0.395]","[-0.377, 0.138]","[0.07, 0.393]","[0.304, -0.26]","[-0.378, -0.136]",,27.753672519997053,16.93788451999717,21.671012819999305,"[0.08518518518518518, 0.3435185185185185, 0.4425925925925926]","[-0.4064814814814815, -0.23055555555555557, 0.007407407407407408]","[1, 1, 1]","[0, 0, 0]","[0, 0, 0]","[16.92371390000335, 21.656616500000382, 27.739829400001327]",0.013401519998296862,27.753146619998006,['A1'],['B2'],['C2'],['salmon'],['yellow'],['blue'],2061.6503933000004,None,7.0,3.113959500002238,2061.6503933000004,None,2064.867253999999,None,9.0,4.548183099999733,2069.4004196000005,None,8.0,6.598735999999917,2076.317020799999,None,10.0,3.4484706000002916,<function functionImportanceB at 0x000001A4015A7378>,<function functionImportanceA at 0x000001A4011AE158>,<function functionImportanceC at 0x000001A4015A7400>,,,-0.0,6.598735999999917,7.0,3.831277500001306,1.0,3.5645421000008355,<function functiondiffA at 0x000001A4011AE730>,<function functiondiffC at 0x000001A4015A76A8>,<function functiondiffB at 0x000001A4011AE598>,,,,,2033.4405970999996,2087.3499078999976,None,2079.4502883999976,None,2083.3667920999997,None,003,001,2022_Jun_13_1245,2leo,2021.2.3,60.01006968952248,
3,0,Plan a barbecue,Stimuli/0A1.jpg,Stimuli/0A2.jpg,Stimuli/0A3.jpg,Stimuli/0B1.jpg,Stimuli/0B2.jpg,Stimuli/0B3.jpg,Stimuli/0C1.jpg,Stimuli/0C2.jpg,Stimuli/0C3.jpg,,,,,0,28,28,0,,,,,,,,2090.416370500001,None,2091.4163608,None,2097.4164631000003,None,"[0.306, 0.255]","[0.066, -0.395]","[-0.377, 0.138]","[0.07, 0.393]","[0.304, -0.26]","[-0.378, -0.136]","[0.399, -0.003]","[-0.203, -0.347]","[-0.2, 0.346]",,6.5974924600013765,14.849237760001415,21.547355260001495,"[0.3537037037037037, 0.3574074074074074, 0.3611111111111111]","[0.28888888888888886, -0.2601851851851852, -0.046296296296296294]","[1, 1, 1]","[0, 0, 0]","[0, 0, 0]","[6.581519499999558, 14.83294129999922, 21.53089099999852]",0.015540360000159126,21.5463578600029,['A1'],['B2'],['C1'],['salmon'],['blue'],['yellow'],2121.882258899999,None,4.0,2.5647952999970585,2121.882258899999,None,2124.515649499999,None,3.0,4.314100800002052,2130.1488372000003,None,10.0,4.165552400001616,2133.0321112,None,2.0,3.048446499997226,<function functionImportanceB at 0x000001A4011AEF28>,<function functionImportanceA at 0x000001A4011AE2F0>,<function functionImportanceC at 0x000001A40088F0D0>,,,7.0,4.165552400001616,2.0,4.247600599999714,7.0,2.9642881999970996,<function functiondiffA at 0x000001A4011AE9D8>,<function functiondiffC at 0x000001A400DB7E18>,<function functiondiffB at 0x000001A400DB7598>,,,,,2099.8821898000006,2143.9485151999997,None,2136.465370199998,None,2140.3319484000003,None,003,001,2022_Jun_13_1245,2leo,2021.2.3,60.01006968952248,
3,26,Plan how to wash one round of your laundry ,Stimuli/26A1.jpg,Stimuli/26A2.jpg,Stimuli/26A3.jpg,Stimuli/26B1.jpg,Stimuli/26B2.jpg,Stimuli/26B3.jpg,Stimuli/26C1.jpg,Stimuli/26C2.jpg,Stimuli/26C3.jpg,,,,,0,29,29,26,,,,,,,,2146.431610999998,None,2147.4315048000008,None,2153.4315560999985,None,"[0.066, -0.395]","[-0.377, 0.138]","[0.306, 0.255]","[-0.203, -0.347]","[-0.2, 0.346]","[0.399, -0.003]","[0.304, -0.26]","[-0.378, -0.136]","[0.07, 0.393]",,18.335525119997328,5.535822419999022,9.387722419996862,"[0.3472222222222222, -0.38425925925925924, 0.005555555555555556]","[-0.011111111111111112, -0.13055555555555556, -0.337037037037037]","[1, 1, 1]","[0, 0, 0]","[0, 0, 0]","[5.524699099998543, 9.37636990000101, 18.324827199998253]",0.01029041999936453,18.334811819997412,['A1'],['B3'],['C2'],['yellow'],['blue'],['salmon'],2173.3808332999997,None,6.0,2.530291600000055,2173.3808332999997,None,2179.263986199998,None,8.0,5.148173400000815,2184.4656281000007,None,10.0,3.1320176999979594,2175.9643153999987,None,10.0,3.2817630999998073,<function functionImportanceC at 0x000001A4015A7C80>,<function functionImportanceB at 0x000001A4015A7BF8>,<function functionImportanceA at 0x000001A4015A7268>,,,0.0,3.1320176999979594,-0.0,3.297914700000547,5.0,2.7315082999994047,<function functiondiffC at 0x000001A4015A72F0>,<function functiondiffB at 0x000001A4011AEB70>,<function functiondiffA at 0x000001A4011AE620>,,,,,2154.5699827000008,2191.314099099998,None,2194.0635340999997,None,2187.564040700001,None,003,001,2022_Jun_13_1245,2leo,2021.2.3,60.01006968952248,
3,18,Plan your Saturday night ,Stimuli/18A1.jpg,Stimuli/18A2.jpg,Stimuli/18A3.jpg,Stimuli/18B1.jpg,Stimuli/18B2.jpg,Stimuli/18B3.jpg,Stimuli/18C1.jpg,Stimuli/18C2.jpg,Stimuli/18C3.jpg,,,,,0,30,30,18,,,,,,,,2237.779317999999,None,2238.779541599999,None,2244.779091300001,None,"[0.306, 0.255]","[-0.377, 0.138]","[0.066, -0.395]","[0.07, 0.393]","[-0.378, -0.136]","[0.304, -0.26]","[0.399, -0.003]","[-0.2, 0.346]","[-0.203, -0.347]",,4.597024139999121,11.047073139998247,8.548730839997006,"[-0.3398148148148148, 0.41388888888888886, 0.10462962962962963]","[0.15092592592592594, 0.05185185185185185, 0.36574074074074076]","[1, 1, 1]","[0, 0, 0]","[0, 0, 0]","[4.580567000000883, 8.531871899998805, 11.030427800000325]",0.01592623999749776,11.046300239999255,['A2'],['B1'],['C1'],['yellow'],['blue'],['salmon'],2257.4118836,None,9.0,2.1304220000019995,2257.4118836,None,2267.9119900999995,None,10.0,4.131697000000713,2259.6121325000004,None,9.0,3.431063100000756,2263.0628454999987,None,4.0,4.865415100000973,<function functionImportanceA at 0x000001A4015A7B70>,<function functionImportanceC at 0x000001A4015A7158>,<function functionImportanceB at 0x000001A4015A7598>,,,1.0,3.431063100000756,3.0,3.514606200002163,1.0,2.581241500000033,<function functiondiffC at 0x000001A400DB7B70>,<function functiondiffA at 0x000001A400DB7D08>,<function functiondiffB at 0x000001A400DB7A60>,,,,,2245.8991683000004,2278.7116093999994,None,2275.1949712000005,None,2272.061803800001,None,003,001,2022_Jun_13_1245,2leo,2021.2.3,60.01006968952248,
3,5,Plan a birthday party for your younger self when you turn eight,Stimuli/5A1.jpg,Stimuli/5A2.jpg,Stimuli/5A3.jpg,Stimuli/5B1.jpg,Stimuli/5B2.jpg,Stimuli/5B3.jpg,Stimuli/5C1.jpg,Stimuli/5C2.jpg,Stimuli/5C3.jpg,,,,,0,31,31,5,,,,,,,,2280.828010799998,None,2281.828203700001,None,2287.828064200001,None,"[-0.377, 0.138]","[0.306, 0.255]","[0.066, -0.395]","[-0.378, -0.136]","[0.07, 0.393]","[0.304, -0.26]","[-0.2, 0.346]","[0.399, -0.003]","[-0.203, -0.347]",,12.705407460005517,6.522643360007351,16.422751260008226,"[-0.3425925925925926, 0.3425925925925926, 0.40555555555555556]","[-0.09351851851851851, 0.25925925925925924, -0.000925925925925926]","[1, 1, 1]","[0, 0, 0]","[0, 0, 0]","[6.516242000001512, 12.699213700001565, 16.41605310000159]",0.0057002600078703836,16.42148416000782,['A2'],['B1'],['C2'],['salmon'],['blue'],['yellow'],2310.4772102999978,None,7.0,4.513380099997448,2310.4772102999978,None,2321.443867199998,None,2.0,4.94811639999898,2327.4933779000003,None,5.0,6.448479999999108,2315.679398399998,None,7.0,4.897626000001765,<function functionImportanceC at 0x000001A4015A7A60>,<function functionImportanceB at 0x000001A40088FD90>,<function functionImportanceA at 0x000001A40088F400>,,,1.0,6.448479999999108,3.0,3.3979827999974077,1.0,4.698590800002421,<function functiondiffB at 0x000001A4015A7F28>,<function functiondiffC at 0x000001A4015A71E0>,<function functiondiffA at 0x000001A4015A7EA0>,,,,,2293.597867399998,2331.7102756999975,None,2341.8099896000003,None,2336.2101270000003,None,003,001,2022_Jun_13_1245,2leo,2021.2.3,60.01006968952248,
3,43,Plan your dream house,Stimuli/43A1.jpg,Stimuli/43A2.jpg,Stimuli/43A3.jpg,Stimuli/43B1.jpg,Stimuli/43B2.jpg,Stimuli/43B3.jpg,Stimuli/43C1.jpg,Stimuli/43C2.jpg,Stimuli/43C3.jpg,,,,,0,32,32,43,,,,,,,,2343.9929893999997,None,2344.9931130999994,None,2350.993167300001,None,"[-0.378, -0.136]","[0.07, 0.393]","[0.304, -0.26]","[-0.2, 0.346]","[0.399, -0.003]","[-0.203, -0.347]","[-0.377, 0.138]","[0.306, 0.255]","[0.066, -0.395]",,13.312403940002696,22.795967240002938,20.033698340001138,"[-0.35555555555555557, 0.09537037037037037, 0.43333333333333335]","[-0.13703703703703704, -0.41944444444444445, 0.000925925925925926]","[1, 1, 1]","[0, 0, 0]","[0, 0, 0]","[13.29604460000337, 20.01390430000174, 22.77919760000077]",0.015940740002406528,22.795059140004014,['A1'],['B2'],['C3'],['salmon'],['blue'],['yellow'],2375.4586978999996,None,4.0,3.0636782000001404,2375.4586978999996,None,2385.858771699999,None,3.0,8.564841799998248,2381.775610300001,None,2.0,4.132276300002559,2378.5922807999978,None,10.0,3.064553200001683,<function functionImportanceC at 0x000001A40088F6A8>,<function functionImportanceA at 0x000001A4015A7AE8>,<function functionImportanceB at 0x000001A4011AE840>,,,4.0,4.132276300002559,3.0,3.19774039999902,3.0,2.4812627999999677,<function functiondiffC at 0x000001A40088F8C8>,<function functiondiffA at 0x000001A4015A7488>,<function functiondiffB at 0x000001A4015A78C8>,,,,,2352.1945173000004,2402.9251185999983,None,2399.6917249999988,None,2394.3752864,None,003,001,2022_Jun_13_1245,2leo,2021.2.3,60.01006968952248,
3,23,Plan a city trip,Stimuli/23A1.jpg,Stimuli/23A2.jpg,Stimuli/23A3.jpg,Stimuli/23B1.jpg,Stimuli/23B2.jpg,Stimuli/23B3.jpg,Stimuli/23C1.jpg,Stimuli/23C2.jpg,Stimuli/23C3.jpg,,,,,0,33,33,23,,,,,,,,2404.9246511,None,2405.924770399999,None,2411.9247027,None,"[-0.377, 0.138]","[0.306, 0.255]","[0.066, -0.395]","[-0.378, -0.136]","[0.07, 0.393]","[0.304, -0.26]","[-0.2, 0.346]","[0.399, -0.003]","[-0.203, -0.347]",,5.817910500001744,16.999896699999226,21.933261400001356,"[-0.3148148148148148, -0.32037037037037036, -0.24259259259259258]","[0.15648148148148147, -0.0824074074074074, 0.31666666666666665]","[1, 1, 1]","[0, 0, 0]","[0, 0, 0]","[5.816632500002015, 16.998325500000647, 21.931457800001226]",0.0008569000019633677,21.932080300000962,['A1'],['B1'],['C1'],['blue'],['yellow'],['salmon'],2435.5071512999984,None,3.0,2.5636588000015763,2435.5071512999984,None,2438.1406669000007,None,10.0,2.864460600001621,2444.1072927000005,None,10.0,2.748221800000465,2441.0571658999997,None,3.0,3.081978499998513,<function functionImportanceB at 0x000001A401BDD158>,<function functionImportanceC at 0x000001A401BDD048>,<function functionImportanceA at 0x000001A4015A79D8>,,,3.0,2.748221800000465,-0.0,2.8978347000011127,7.0,2.964513099999749,<function functiondiffA at 0x000001A400327510>,<function functiondiffB at 0x000001A4011AED90>,<function functiondiffC at 0x000001A4015A77B8>,,,,,2413.0905599999987,2449.773761999999,None,2446.857238399998,None,2452.756984900001,None,003,001,2022_Jun_13_1245,2leo,2021.2.3,60.01006968952248,
3,44,Plan a party at your place,Stimuli/44A1.jpg,Stimuli/44A2.jpg,Stimuli/44A3.jpg,Stimuli/44B1.jpg,Stimuli/44B2.jpg,Stimuli/44B3.jpg,Stimuli/44C1.jpg,Stimuli/44C2.jpg,Stimuli/44C3.jpg,,,,,0,34,34,44,,,,,,,,2455.0899499999996,None,2456.090094699999,None,2462.0903423,None,"[0.066, -0.395]","[0.306, 0.255]","[-0.377, 0.138]","[-0.203, -0.347]","[0.399, -0.003]","[-0.2, 0.346]","[0.304, -0.26]","[0.07, 0.393]","[-0.378, -0.136]",,14.101725119999173,9.752349219997996,27.36855531999754,"[-0.14537037037037037, -0.42777777777777776, -0.32407407407407407]","[0.3731481481481482, 0.15, -0.14907407407407408]","[1, 1, 1]","[0, 0, 0]","[0, 0, 0]","[9.749558600000455, 14.099218700001074, 27.36550260000149]",0.0018477199992048554,27.36725591999857,['A3'],['B3'],['C3'],['salmon'],['blue'],['yellow'],2491.0891278,None,3.0,2.4470029000003706,2491.0891278,None,2497.439206500001,None,3.0,2.598599799999647,2493.5893669999987,None,3.0,3.814474800001335,2500.0558239,None,4.0,5.598306400002912,<function functionImportanceA at 0x000001A401BDDC80>,<function functionImportanceB at 0x000001A401BDD2F0>,<function functionImportanceC at 0x000001A401BDDB70>,,,6.0,3.814474800001335,7.0,4.214944300001662,6.0,4.364133499999298,<function functiondiffB at 0x000001A400DB76A8>,<function functiondiffC at 0x000001A401BDD6A8>,<function functiondiffA at 0x000001A40088F620>,,,,,2463.2373960999994,2505.655684700001,None,2514.688686399999,None,2510.0219295999977,None,003,001,2022_Jun_13_1245,2leo,2021.2.3,60.01006968952248,
3,11,Plan a hike in nature on a free day,Stimuli/11A1.jpg,Stimuli/11A2.jpg,Stimuli/11A3.jpg,Stimuli/11B1.jpg,Stimuli/11B2.jpg,Stimuli/11B3.jpg,Stimuli/11C1.jpg,Stimuli/11C2.jpg,Stimuli/11C3.jpg,,,,,0,35,35,11,,,,,,,,2518.4215251999976,None,2519.421827,None,2525.4219528999984,None,"[0.07, 0.393]","[0.304, -0.26]","[-0.378, -0.136]","[0.399, -0.003]","[-0.203, -0.347]","[-0.2, 0.346]","[0.306, 0.255]","[0.066, -0.395]","[-0.377, 0.138]",,7.240537099998619,2.624262399996951,5.207841499995993,"[-0.1527777777777778, 0.09814814814814815, -0.3509259259259259]","[-0.4064814814814815, -0.4046296296296296, -0.175]","[1, 1, 1]","[0, 0, 0]","[0, 0, 0]","[2.610613099997863, 5.193945700000768, 7.227061199999298]",0.012884399999165908,7.239793599997938,['A3'],['B2'],['C2'],['salmon'],['yellow'],['blue'],2534.2880934999976,None,9.0,2.247210699999414,2534.2880934999976,None,2544.2879078999995,None,3.0,3.448402199999691,2536.604846100001,None,3.0,4.130619699997624,2540.7545666999995,None,3.0,3.5150246000011975,<function functionImportanceA at 0x000001A401BDD488>,<function functionImportanceC at 0x000001A401BDD1E0>,<function functionImportanceB at 0x000001A401BDD840>,,,3.0,4.130619699997624,3.0,4.514616199998272,5.0,3.231234700000641,<function functiondiffC at 0x000001A401BDD268>,<function functiondiffB at 0x000001A401BDDE18>,<function functiondiffA at 0x000001A401BDDD90>,,,,,2526.5754881999983,2551.454498199999,None,2554.7042944000004,None,2547.721304599998,None,003,001,2022_Jun_13_1245,2leo,2021.2.3,60.01006968952248,
3,21,Plan your sandwich for lunch,Stimuli/21A1.jpg,Stimuli/21A2.jpg,Stimuli/21A3.jpg,Stimuli/21B1.jpg,Stimuli/21B2.jpg,Stimuli/21B3.jpg,Stimuli/21C1.jpg,Stimuli/21C2.jpg,Stimuli/21C3.jpg,,,,,0,36,36,21,,,,,,,,2558.7371315,None,2559.7375582999975,None,2565.7375434999976,None,"[0.07, 0.393]","[-0.378, -0.136]","[0.304, -0.26]","[0.306, 0.255]","[-0.377, 0.138]","[0.066, -0.395]","[0.399, -0.003]","[-0.2, 0.346]","[-0.203, -0.347]",,5.47621602000072,9.676524319998862,4.026939920000586,"[-0.13796296296296295, 0.0, 0.053703703703703705]","[0.3175925925925926, 0.35555555555555557, -0.32037037037037036]","[1, 1, 1]","[0, 0, 0]","[0, 0, 0]","[4.020264900002076, 5.470133599999826, 9.669936700000108]",0.005658620000758674,9.67548872000043,['A1'],['B3'],['C2'],['salmon'],['yellow'],['blue'],2577.036875,None,6.0,2.7135994999989634,2577.036875,None,2587.403438799998,None,4.0,2.5488523000021814,2583.8369277,None,4.0,3.5650348000017402,2579.8204491999986,None,3.0,3.9977703000004112,<function functionImportanceC at 0x000001A401BDD620>,<function functionImportanceA at 0x000001A401BDD730>,<function functionImportanceB at 0x000001A401BDD0D0>,,,2.0,3.5650348000017402,4.0,3.3311989000030735,3.0,5.6978770999994595,<function functiondiffA at 0x000001A401BDDAE8>,<function functiondiffB at 0x000001A4015A7510>,<function functiondiffC at 0x000001A4015A7D08>,,,,,2566.8813441,2593.303361100001,None,2589.9534612000007,None,2599.019888699999,None,003,001,2022_Jun_13_1245,2leo,2021.2.3,60.01006968952248,
3,34,Plan what car you want to buy,Stimuli/34A1.jpg,Stimuli/34A2.jpg,Stimuli/34A3.jpg,Stimuli/34B1.jpg,Stimuli/34B2.jpg,Stimuli/34B3.jpg,Stimuli/34C1.jpg,Stimuli/34C2.jpg,Stimuli/34C3.jpg,,,,,0,37,37,34,,,,,,,,2602.4026391999996,None,2603.4030430000003,None,2609.403041200001,None,"[-0.203, -0.347]","[-0.2, 0.346]","[0.399, -0.003]","[0.066, -0.395]","[-0.377, 0.138]","[0.306, 0.255]","[0.304, -0.26]","[-0.378, -0.136]","[0.07, 0.393]",,14.95920562000174,5.809743620000518,10.360143520003476,"[-0.3675925925925926, 0.08888888888888889, 0.35555555555555557]","[0.09537037037037037, 0.40370370370370373, -0.075]","[1, 1, 1]","[0, 0, 0]","[0, 0, 0]","[5.808709799999633, 10.358706600000005, 14.958363999998255]",0.0002272200035804417,14.958465020001313,['A3'],['B2'],['C3'],['salmon'],['blue'],['yellow'],2627.9356199999984,None,5.0,2.5806408999997075,2627.9356199999984,None,2638.8855410999986,None,3.0,3.681652999999642,2631.569012099999,None,10.0,4.314478299998882,2634.9188032,None,10.0,2.998270299998694,<function functionImportanceA at 0x000001A401BDD598>,<function functionImportanceC at 0x000001A4015A7D90>,<function functionImportanceB at 0x000001A4015A7730>,,,2.0,4.314478299998882,1.0,3.931242899998324,2.0,3.0975446999982523,<function functiondiffB at 0x000001A401BDDEA0>,<function functiondiffC at 0x000001A4015A7E18>,<function functiondiffA at 0x000001A401BDD8C8>,,,,,2612.5093682999996,2641.835685100001,None,2652.584632699998,None,2644.7187293000006,None,003,001,2022_Jun_13_1245,2leo,2021.2.3,60.01006968952248,
3,29,Plan a day in the mountains ,Stimuli/29A1.jpg,Stimuli/29A2.jpg,Stimuli/29A3.jpg,Stimuli/29B1.jpg,Stimuli/29B2.jpg,Stimuli/29B3.jpg,Stimuli/29C1.jpg,Stimuli/29C2.jpg,Stimuli/29C3.jpg,,,,,0,38,38,29,,,,,,,,2655.701282199998,None,2656.7015463000007,None,2662.701293699998,None,"[0.066, -0.395]","[-0.377, 0.138]","[0.306, 0.255]","[0.304, -0.26]","[-0.378, -0.136]","[0.07, 0.393]","[-0.203, -0.347]","[-0.2, 0.346]","[0.399, -0.003]",,20.673906240004726,9.724433340004907,16.22755474000587,"[-0.31666666666666665, -0.23333333333333334, 0.2638888888888889]","[-0.08055555555555556, -0.31666666666666665, 0.2101851851851852]","[1, 1, 1]","[0, 0, 0]","[0, 0, 0]","[9.710308500001702, 16.21107800000027, 20.65993300000264]",0.013320040005055489,20.673135840002942,['A3'],['B2'],['C1'],['blue'],['yellow'],['salmon'],2685.0507706000008,None,2.0,2.247088199997961,2685.0507706000008,None,2690.9341366999997,None,10.0,2.565135500000906,2693.6007684999986,None,10.0,2.815190299999813,2687.367523499999,None,6.0,3.5477194000013696,<function functionImportanceC at 0x000001A402593730>,<function functionImportanceB at 0x000001A4025938C8>,<function functionImportanceA at 0x000001A4015A7840>,,,3.0,2.815190299999813,8.0,2.6810493000011775,3.0,4.831233999997494,<function functiondiffB at 0x000001A401BDD510>,<function functiondiffA at 0x000001A401BDDF28>,<function functiondiffC at 0x000001A402593510>,,,,,2663.9048810000004,2696.3173331999988,None,2701.1838879999978,None,2703.867067099998,None,003,001,2022_Jun_13_1245,2leo,2021.2.3,60.01006968952248,
3,1,Plan how to study for an exam,Stimuli/1A1.jpg,Stimuli/1A2.jpg,Stimuli/1A3.jpg,Stimuli/1B1.jpg,Stimuli/1B2.jpg,Stimuli/1B3.jpg,Stimuli/1C1.jpg,Stimuli/1C2.jpg,Stimuli/1C3.jpg,,,,,0,39,39,1,,,,,,,,2707.1498873,None,2708.1502585,None,2714.1502628,None,"[0.399, -0.003]","[-0.203, -0.347]","[-0.2, 0.346]","[0.07, 0.393]","[0.304, -0.26]","[-0.378, -0.136]","[0.306, 0.255]","[0.066, -0.395]","[-0.377, 0.138]",,18.42004495999936,12.686508559996582,15.02034435999667,"[0.06296296296296296, 0.27314814814814814, 0.4009259259259259]","[0.33055555555555555, 0.2833333333333333, 0.003703703703703704]","[1, 1, 1]","[0, 0, 0]","[0, 0, 0]","[12.6835585000008, 15.017164099997899, 18.417354699999123]",0.0022349599967128597,18.419147359996714,['A1'],['B1'],['C1'],['blue'],['salmon'],['yellow'],2734.166156999998,None,8.0,2.4135165000006964,2734.166156999998,None,2742.999222100001,None,10.0,3.116087599999446,2739.7992466999985,None,10.0,3.1820641000012984,2736.6161983,None,10.0,3.130779999999504,<function functionImportanceC at 0x000001A402593BF8>,<function functionImportanceA at 0x000001A402593D08>,<function functionImportanceB at 0x000001A402593A60>,,,0.0,3.1820641000012984,2.0,3.729749999998603,0.0,4.047374300000229,<function functiondiffA at 0x000001A401BDDD08>,<function functiondiffB at 0x000001A401BDD7B8>,<function functiondiffC at 0x000001A401BDDBF8>,,,,,2715.2654676,2749.849196699999,None,2746.099358199999,None,2753.899256399998,None,003,001,2022_Jun_13_1245,2leo,2021.2.3,60.01006968952248,
3,30,Plan your sport work out for tomorrow,Stimuli/30A1.jpg,Stimuli/30A2.jpg,Stimuli/30A3.jpg,Stimuli/30B1.jpg,Stimuli/30B2.jpg,Stimuli/30B3.jpg,Stimuli/30C1.jpg,Stimuli/30C2.jpg,Stimuli/30C3.jpg,,,,,0,40,40,30,,,,,,,,2755.848604500001,None,2756.8488801000003,None,2762.8490182999976,None,"[0.07, 0.393]","[-0.378, -0.136]","[0.304, -0.26]","[0.399, -0.003]","[-0.2, 0.346]","[-0.203, -0.347]","[0.306, 0.255]","[-0.377, 0.138]","[0.066, -0.395]",,9.604785180003091,12.171711980001419,6.738770280000608,"[0.09074074074074075, -0.4074074074074074, -0.22592592592592592]","[-0.4388888888888889, -0.12962962962962962, 0.3287037037037037]","[1, 1, 1]","[0, 0, 0]","[0, 0, 0]","[6.725933099998656, 9.592559899996559, 12.159211199999845]",0.011696180001308676,12.170673480002733,['A2'],['B2'],['C3'],['yellow'],['blue'],['salmon'],2776.6649653999975,None,10.0,2.52975719999813,2776.6649653999975,None,2785.0483693000006,None,10.0,3.2153098000017053,2788.2315849999995,None,10.0,2.9819217000003846,2779.2652289999987,None,7.0,5.730351199999859,<function functionImportanceC at 0x000001A4025937B8>,<function functionImportanceB at 0x000001A402593158>,<function functionImportanceA at 0x000001A402593488>,,,4.0,2.9819217000003846,-0.0,3.147602299999562,0.0,2.398424300001352,<function functiondiffA at 0x000001A401BDDA60>,<function functiondiffC at 0x000001A401BDD950>,<function functiondiffB at 0x000001A401BDD9D8>,,,,,2764.0201230000002,2797.8147163999984,None,2791.2148825999993,None,2794.3814875000007,None,003,001,2022_Jun_13_1245,2leo,2021.2.3,60.01006968952248,
3,7,Plan your Sunday breakfast ,Stimuli/7A1.jpg,Stimuli/7A2.jpg,Stimuli/7A3.jpg,Stimuli/7B1.jpg,Stimuli/7B2.jpg,Stimuli/7B3.jpg,Stimuli/7C1.jpg,Stimuli/7C2.jpg,Stimuli/7C3.jpg,,,,,0,41,41,7,,,,,,,,2799.714133899999,None,2800.714382,None,2806.714536999998,None,"[0.306, 0.255]","[-0.377, 0.138]","[0.066, -0.395]","[0.07, 0.393]","[-0.378, -0.136]","[0.304, -0.26]","[0.399, -0.003]","[-0.2, 0.346]","[-0.203, -0.347]",,5.456014560008043,3.8062945600067906,10.089941060006822,"[0.32314814814814813, 0.14166666666666666, 0.36944444444444446]","[-0.2518518518518518, -0.3425925925925926, 0.03611111111111111]","[1, 1, 1]","[0, 0, 0]","[0, 0, 0]","[3.7902522000003955, 5.440170300000318, 10.0737967999994]",0.01520726000671857,10.088694060006674,['A3'],['B3'],['C1'],['salmon'],['blue'],['yellow'],2823.180480599998,None,4.0,3.1634482000008575,2823.180480599998,None,2835.4166341,None,10.0,4.9316236000013305,2828.1305072999985,None,9.0,7.145702800000436,2839.7465895000005,None,2.0,3.915206899997429,<function functionImportanceA at 0x000001A401BDD400>,<function functionImportanceB at 0x000001A4025931E0>,<function functionImportanceC at 0x000001A402593048>,,,7.0,7.145702800000436,2.0,6.147403999999369,1.0,4.297471300000325,<function functiondiffB at 0x000001A402593950>,<function functiondiffC at 0x000001A402593AE8>,<function functiondiffA at 0x000001A402593378>,,,,,2812.6425379999982,2843.1300084999984,None,2850.696606299998,None,2847.0800688,None,003,001,2022_Jun_13_1245,2leo,2021.2.3,60.01006968952248,
3,28,Plan a one-week camping trip in Spain,Stimuli/28A1.jpg,Stimuli/28A2.jpg,Stimuli/28A3.jpg,Stimuli/28B1.jpg,Stimuli/28B2.jpg,Stimuli/28B3.jpg,Stimuli/28C1.jpg,Stimuli/28C2.jpg,Stimuli/28C3.jpg,,,,,0,42,42,28,,,,,,,,2855.8626607999995,None,2856.863013100001,None,2862.8630484000005,None,"[0.306, 0.255]","[-0.377, 0.138]","[0.066, -0.395]","[0.07, 0.393]","[-0.378, -0.136]","[0.304, -0.26]","[0.399, -0.003]","[-0.2, 0.346]","[-0.203, -0.347]",,10.760147760000109,22.160039959999267,17.66049135999856,"[0.362962962962963, -0.1675925925925926, -0.40925925925925927]","[0.26944444444444443, -0.33611111111111114, -0.17685185185185184]","[1, 1, 1]","[0, 0, 0]","[0, 0, 0]","[10.745261600000958, 17.644902100000763, 22.144757900001423]",0.014460959999269107,22.159123260000342,['A1'],['B2'],['C3'],['salmon'],['yellow'],['blue'],2886.6785841,None,3.0,2.4969419999979436,2886.6785841,None,2889.2956256999987,None,5.0,4.694013800002722,2894.0121297999995,None,4.0,5.298296799999662,2899.2953541999977,None,7.0,3.115130499998486,<function functionImportanceB at 0x000001A402593B70>,<function functionImportanceA at 0x000001A402593620>,<function functionImportanceC at 0x000001A4025936A8>,,,5.0,5.298296799999662,5.0,2.3813056999970286,7.0,3.0975813000004564,<function functiondiffB at 0x000001A4025939D8>,<function functiondiffC at 0x000001A402593400>,<function functiondiffA at 0x000001A402593D90>,,,,,2864.0493211999983,2902.3785743999997,None,2908.8783109999986,None,2905.495159199998,None,003,001,2022_Jun_13_1245,2leo,2021.2.3,60.01006968952248,
3,39,Plan what kind of watch you want to buy,Stimuli/39A1.jpg,Stimuli/39A2.jpg,Stimuli/39A3.jpg,Stimuli/39B1.jpg,Stimuli/39B2.jpg,Stimuli/39B3.jpg,Stimuli/39C1.jpg,Stimuli/39C2.jpg,Stimuli/39C3.jpg,,,,,0,43,43,39,,,,,,,,2910.7779102999975,None,2911.7782119999993,None,2917.7782499999976,None,"[0.07, 0.393]","[0.304, -0.26]","[-0.378, -0.136]","[0.306, 0.255]","[0.066, -0.395]","[-0.377, 0.138]","[0.399, -0.003]","[-0.203, -0.347]","[-0.2, 0.346]",,21.099026880001475,14.41605028000049,10.532937580002908,"[0.42685185185185187, 0.3333333333333333, 0.32407407407407407]","[-0.001851851851851852, 0.25833333333333336, -0.19814814814814816]","[1, 1, 1]","[0, 0, 0]","[0, 0, 0]","[10.523013699999865, 14.406364700000267, 21.08951490000254]",0.00899248000132502,21.098271180002484,['A2'],['B1'],['C1'],['blue'],['yellow'],['salmon'],2940.5274291999976,None,3.0,2.1301858000006177,2940.5274291999976,None,2942.7108390999983,None,9.0,3.3159716999980446,2950.3272189,None,9.0,4.165222899999208,2946.1107409999986,None,7.0,4.248578200000338,<function functionImportanceB at 0x000001A402AF0A60>,<function functionImportanceC at 0x000001A402AF0488>,<function functionImportanceA at 0x000001A402593C80>,,,6.0,4.165222899999208,7.0,3.464267400002427,1.0,2.930999799998972,<function functiondiffA at 0x000001A401BDD378>,<function functiondiffB at 0x000001A402593EA0>,<function functiondiffC at 0x000001A402AF0048>,,,,,2918.951741499999,2957.9605016000005,None,2954.4771630999985,None,2960.910285,None,003,001,2022_Jun_13_1245,2leo,2021.2.3,60.01006968952248,
3,42,Plan how to draw a painting ,Stimuli/42A1.jpg,Stimuli/42A2.jpg,Stimuli/42A3.jpg,Stimuli/42B1.jpg,Stimuli/42B2.jpg,Stimuli/42B3.jpg,Stimuli/42C1.jpg,Stimuli/42C2.jpg,Stimuli/42C3.jpg,,,,,0,44,44,42,,,,,,,,2963.3598839999995,None,2964.360289399998,None,2970.3601524999995,None,"[-0.377, 0.138]","[0.066, -0.395]","[0.306, 0.255]","[-0.378, -0.136]","[0.304, -0.26]","[0.07, 0.393]","[-0.2, 0.346]","[-0.203, -0.347]","[0.399, -0.003]",,4.747643939997943,7.997713839999051,11.064511939999647,"[0.05, -0.33240740740740743, -0.24259259259259258]","[-0.4166666666666667, -0.08148148148148149, 0.33055555555555555]","[1, 1, 1]","[0, 0, 0]","[0, 0, 0]","[4.746639999997569, 7.996602299997903, 11.063113999996858]",0.0004204399992886465,11.063459140001214,['A2'],['B1'],['C1'],['salmon'],['yellow'],['blue'],2983.2095303000006,None,7.0,2.5139541999997164,2983.2095303000006,None,2985.792917500001,None,9.0,3.4809461000004376,2992.1594728,None,9.0,3.0324077999976,2989.292893,None,9.0,2.698454800000036,<function functionImportanceB at 0x000001A402AF07B8>,<function functionImportanceC at 0x000001A402AF0AE8>,<function functionImportanceA at 0x000001A402AF0840>,,,3.0,3.0324077999976,1.0,2.7471552999995765,1.0,2.9977906000021903,<function functiondiffA at 0x000001A402593F28>,<function functiondiffC at 0x000001A4025932F0>,<function functiondiffB at 0x000001A402593598>,,,,,2971.6619389999996,3000.9260840999978,None,2995.042733799999,None,2997.792735199999,None,003,001,2022_Jun_13_1245,2leo,2021.2.3,60.01006968952248,
