Condition,N_Scenario,written_scenario,ImageA1,ImageA2,ImageA3,ImageB1,ImageB2,ImageB3,ImageC1,ImageC2,ImageC3,trials_2.thisRepN,trials_2.thisTrialN,trials_2.thisN,trials_2.thisIndex,trial.thisRepN,trial.thisTrialN,trial.thisN,trial.thisIndex,button_2.started,button_2.stopped,button_2.numClicks,button_2.timesOn,button_2.timesOff,text.started,text.stopped,fixationcross1_started,fixationcross1_stopped,Scenario_started,Scenario_stopped,fixationcross2_started,fixationcross2_stopped,A1pos,A2pos,A3pos,B1pos,B2pos,B3pos,C1pos,C2pos,C3pos,﻿Imagesdecision_started,decisiontimeA,decisiontimeB,decisiontimeC,mouse_x,mouse_y,mouse_leftButton,mouse_midButton,mouse_rightButton,mouse_time,mouse_started,mouse_stopped,clicked_optionA,clicked_optionB,clicked_optionC,colour_category_A,colour_category_B,colour_category_C,question_confidence_started,question_confidence_stopped,slider_confidence_response,slider_confidence_rt,slider_confidence_started,slider_confidence_stopped,question_valueA_started,question_valueA_stopped,slider_valueA_response,slider_valueA_rt,question_valueB_started,question_valueB_stopped,slider_valueB_response,slider_valueB_rt,question_valueC_started,question_valueC_stopped,slider_valueC_response,slider_valueC_rt,Importance_First,Importance_Second,Importance_Third,question_diff_started,question_diff_stopped,slider_diffB_response,slider_diffB_rt,slider_diffA_response,slider_diffA_rt,slider_diffC_response,slider_diffC_rt,diff_First,diff_Second,diff_Third,button_3_started,button_3_stopped,text_2_started,text_2_stopped,Imagesdecision_started,question_diffB_started,question_diffB_stopped,question_diffA_started,question_diffA_stopped,question_diffC_started,question_diffC_stopped,participant,session,date,expName,psychopyVersion,frameRate,
3,2,Plan a party to celebrate your birthday,Stimuli/2A1t.jpg,Stimuli/2A2t.jpg,Stimuli/2A3t.jpg,Stimuli/2B1t.jpg,Stimuli/2B2t.jpg,Stimuli/2B3t.jpg,Stimuli/2C1t.jpg,Stimuli/2C2t.jpg,Stimuli/2C3t.jpg,0,0,0,0,,,,,17.984412700000576,None,1,[3.2729490000001533],[3.272953000000598],17.984412700000576,None,71.84641680000004,None,72.85565529999985,None,78.85573699999986,None,"[-0.378, -0.136]","[0.304, -0.26]","[0.07, 0.393]","[-0.2, 0.346]","[-0.203, -0.347]","[0.399, -0.003]","[-0.377, 0.138]","[0.066, -0.395]","[0.306, 0.255]",82.83445149999989,9.100799839994579,4.667919839994283,12.267949839994799,"[-0.15092592592592594, 0.35185185185185186, 0.3398148148148148]","[0.3574074074074074, -0.3175925925925926, 0.2]","[1, 1, 1]","[0, 0, 0]","[0, 0, 0]","[4.651800499999808, 9.084863400000359, 12.25142920000053]",0.01543763999507064,12.266666339995027,['A2'],['B1'],['C3'],['yellow'],['blue'],['salmon'],95.5549503000002,None,9.0,5.480529200000092,95.5549503000002,None,102.37163839999994,None,9.0,10.2807042000004,112.95466949999991,None,8.0,8.49842069999977,119.93767920000028,None,5.0,4.848203399999875,<function functionImportanceAt at 0x000001425168FA60>,<function functionImportanceBt at 0x000001425168FE18>,<function functionImportanceCt at 0x000001425168FB70>,137.33744240000033,None,8.0,5.8476297000006525,4.0,10.2807042000004,4.0,5.747838799999954,<function functiondiffBt at 0x000001425162AEA0>,<function functiondiffAt at 0x000001425162AF28>,<function functiondiffCt at 0x000001425162AD90>,,,,,,,,,,,,16,001,2022_Jul_19_1012,2leo,2021.2.3,60.00535247770309,
3,3,Plan one week of vacation,Stimuli/3A1t.jpg,Stimuli/3A2t.jpg,Stimuli/3A3t.jpg,Stimuli/3B1t.jpg,Stimuli/3B2t.jpg,Stimuli/3B3t.jpg,Stimuli/3C1t.jpg,Stimuli/3C2t.jpg,Stimuli/3C3t.jpg,0,1,1,1,,,,,,,,,,,,142.60382070000014,None,143.60389060000034,None,149.60361960000046,None,"[0.306, 0.255]","[-0.377, 0.138]","[0.066, -0.395]","[0.399, -0.003]","[-0.2, 0.346]","[-0.203, -0.347]","[0.07, 0.393]","[-0.378, -0.136]","[0.304, -0.26]",155.63466640000024,11.957185559990648,8.874056259990539,4.7924241599903326,"[0.007407407407407408, 0.3907407407407407, -0.34074074074074073]","[0.31666666666666665, -0.049074074074074076, 0.07222222222222222]","[1, 1, 1]","[0, 0, 0]","[0, 0, 0]","[4.78752330000043, 8.86942739999995, 11.952765]",0.0039170599902718095,11.956457559990668,['A2'],['B1'],['C1'],['blue'],['yellow'],['salmon'],168.05303110000023,None,9.0,3.4640277999997124,168.05303110000023,None,182.7190384000005,None,2.0,7.098264399999607,189.6358854,None,4.0,7.798674900000151,173.05306380000002,None,9.0,9.180991000000176,<function functionImportanceCt at 0x000001423EF431E0>,<function functionImportanceAt at 0x000001425168F9D8>,<function functionImportanceBt at 0x000001425168FD90>,208.93542979999984,None,7.0,6.280670500000269,3.0,7.098264399999607,9.0,6.264436599999499,<function functiondiffBt at 0x000001425162A598>,<function functiondiffCt at 0x000001425162AA60>,<function functiondiffAt at 0x000001425162AAE8>,,,,,,,,,,,,16,001,2022_Jul_19_1012,2leo,2021.2.3,60.00535247770309,
3,4,Plan a game night at your place,Stimuli/4A1.jpg,Stimuli/4A2.jpg,Stimuli/4A3.jpg,Stimuli/4B1.jpg,Stimuli/4B2.jpg,Stimuli/4B3.jpg,Stimuli/4C1.jpg,Stimuli/4C2.jpg,Stimuli/4C3.jpg,,,,,0,0,0,4,,,,,,,,276.34450430000015,None,277.3333842000002,None,283.3332700000001,None,"[0.066, -0.395]","[0.306, 0.255]","[-0.377, 0.138]","[0.304, -0.26]","[0.07, 0.393]","[-0.378, -0.136]","[-0.203, -0.347]","[0.399, -0.003]","[-0.2, 0.346]",,15.11208455999622,4.012737359996208,12.69649195999591,"[-0.30092592592592593, 0.32592592592592595, -0.012962962962962963]","[-0.06666666666666667, -0.008333333333333333, -0.3675925925925926]","[1, 1, 1]","[0, 0, 0]","[0, 0, 0]","[4.009741200000462, 12.693390800000088, 15.109645500000624]",0.002031259995419532,15.111396459995376,['A1'],['B3'],['C2'],['salmon'],['yellow'],['blue'],302.4158127999999,None,8.0,2.729200800000399,302.4158127999999,None,306.28255009999975,None,2.0,5.414298400000007,310.6656260999998,None,7.0,7.064529299999776,319.1022677000001,None,7.0,7.097854499999812,<function functionImportanceA at 0x0000014246C52E18>,<function functionImportanceB at 0x000001424F3C19D8>,<function functionImportanceC at 0x000001424E9EEF28>,,,7.0,4.130573899999945,1.0,4.764190700000654,3.0,5.414298400000007,<function functiondiffB at 0x000001425162A0D0>,<function functiondiffA at 0x000001425162A1E0>,<function functiondiffC at 0x0000014200CBEBF8>,212.6684954000002,None,212.6684954000002,None,286.83982879999985,324.8154099000003,None,329.28191909999987,None,334.11511299999984,None,16,001,2022_Jul_19_1012,2leo,2021.2.3,60.00535247770309,
3,40,Plan to see a sports event ,Stimuli/40A1.jpg,Stimuli/40A2.jpg,Stimuli/40A3.jpg,Stimuli/40B1.jpg,Stimuli/40B2.jpg,Stimuli/40B3.jpg,Stimuli/40C1.jpg,Stimuli/40C2.jpg,Stimuli/40C3.jpg,,,,,0,1,1,40,,,,,,,,338.16492449999987,None,339.16490930000055,None,345.1648842000004,None,"[-0.377, 0.138]","[0.306, 0.255]","[0.066, -0.395]","[-0.378, -0.136]","[0.07, 0.393]","[0.304, -0.26]","[-0.2, 0.346]","[0.399, -0.003]","[-0.203, -0.347]",,13.171384179999222,16.03801457999998,6.672048379999978,"[0.34444444444444444, 0.10185185185185185, 0.058333333333333334]","[0.02962962962962963, -0.4074074074074074, 0.30648148148148147]","[1, 1, 1]","[0, 0, 0]","[0, 0, 0]","[6.667148100000304, 13.166930600000342, 16.03334140000061]",0.0038521799997397466,16.037143179999475,['A3'],['B2'],['C2'],['salmon'],['yellow'],['blue'],362.9973517999997,None,10.0,3.030829100000119,362.9973517999997,None,366.14748469999995,None,0.0,4.181083899999976,370.4307190999998,None,9.0,6.248248400000193,376.5970970999997,None,-0.0,4.031656499999372,<function functionImportanceA at 0x000001425162ABF8>,<function functionImportanceB at 0x0000014200CBED08>,<function functionImportanceC at 0x0000014200CBE378>,,,0.0,4.547789199999897,2.0,6.413885899999514,7.0,4.181083899999976,<function functiondiffA at 0x0000014200CBEB70>,<function functiondiffC at 0x000001425162A158>,<function functiondiffB at 0x0000014200CBE510>,,,,,346.4808385000006,392.2299744000002,None,380.5804998000003,None,387.0136757999999,None,16,001,2022_Jul_19_1012,2leo,2021.2.3,60.00535247770309,
3,24,Plan your Monday morning on a workday ,Stimuli/24A1.jpg,Stimuli/24A2.jpg,Stimuli/24A3.jpg,Stimuli/24B1.jpg,Stimuli/24B2.jpg,Stimuli/24B3.jpg,Stimuli/24C1.jpg,Stimuli/24C2.jpg,Stimuli/24C3.jpg,,,,,0,2,2,24,,,,,,,,396.2632966000001,None,397.26336170000013,None,403.2631626000002,None,"[0.306, 0.255]","[0.066, -0.395]","[-0.377, 0.138]","[0.399, -0.003]","[-0.203, -0.347]","[-0.2, 0.346]","[0.07, 0.393]","[0.304, -0.26]","[-0.378, -0.136]",,15.883941339999183,4.284346339999502,11.984350339999764,"[-0.15092592592592594, -0.35555555555555557, -0.3]","[0.29814814814814816, -0.125, 0.05925925925925926]","[1, 1, 1]","[0, 0, 0]","[0, 0, 0]","[4.274186900000132, 11.97394759999952, 15.874037999999928]",0.00931343999945966,15.883056439999564,['A3'],['B3'],['C3'],['yellow'],['salmon'],['blue'],420.72906109999985,None,9.0,2.5970140999997966,420.72906109999985,None,427.7791808000002,None,9.0,8.231611500000326,436.0454655000003,None,9.0,4.615088700000342,423.3958183000004,None,-0.0,4.38081560000046,<function functionImportanceC at 0x0000014200CBE7B8>,<function functionImportanceA at 0x0000014200CBEAE8>,<function functionImportanceB at 0x0000014200CBED90>,,,2.0,4.714791200000036,1.0,5.564175999999861,10.0,8.231611500000326,<function functiondiffA at 0x0000014200CBE6A8>,<function functiondiffC at 0x0000014200CBEC80>,<function functiondiffB at 0x0000014200CBE488>,,,,,404.37021079999977,449.22843120000016,None,440.6454255999997,None,446.22864630000004,None,16,001,2022_Jul_19_1012,2leo,2021.2.3,60.00535247770309,
3,35,Plan how you want to do your grocery shopping ,Stimuli/35A1.jpg,Stimuli/35A2.jpg,Stimuli/35A3.jpg,Stimuli/35B1.jpg,Stimuli/35B2.jpg,Stimuli/35B3.jpg,Stimuli/35C1.jpg,Stimuli/35C2.jpg,Stimuli/35C3.jpg,,,,,0,3,3,35,,,,,,,,453.4615961999998,None,454.4616735999998,None,460.4615534000004,None,"[0.07, 0.393]","[-0.378, -0.136]","[0.304, -0.26]","[0.306, 0.255]","[-0.377, 0.138]","[0.066, -0.395]","[0.399, -0.003]","[-0.2, 0.346]","[-0.203, -0.347]",,23.336638159999893,18.187383460000092,5.6044179599994095,"[-0.262037037037037, -0.3527777777777778, -0.3398148148148148]","[-0.28055555555555556, 0.11296296296296296, -0.1398148148148148]","[1, 1, 1]","[0, 0, 0]","[0, 0, 0]","[5.59198539999943, 18.17531019999933, 23.324843499999588]",0.011306859999422159,23.33603346000018,['A2'],['B2'],['C3'],['salmon'],['yellow'],['blue'],485.4773117000004,None,8.0,2.897072100000514,485.4773117000004,None,494.4772098000003,None,10.0,5.315049499999986,488.51070530000015,None,7.0,5.997860600000422,499.7769661000002,None,9.0,3.8981974999996964,<function functionImportanceB at 0x000001425154EEA0>,<function functionImportanceA at 0x0000014200CBEA60>,<function functionImportanceC at 0x00000142004436A8>,,,9.0,3.581517399999939,10.0,3.3815630999997666,2.0,5.315049499999986,<function functiondiffC at 0x0000014200CBE268>,<function functiondiffA at 0x000001425162A620>,<function functiondiffB at 0x000001425162A488>,,,,,461.66874480000024,513.3098737,None,509.8935177000003,None,503.67701639999996,None,16,001,2022_Jul_19_1012,2leo,2021.2.3,60.00535247770309,
3,25,Plan how you want to read a book in your free time ,Stimuli/25A1.jpg,Stimuli/25A2.jpg,Stimuli/25A3.jpg,Stimuli/25B1.jpg,Stimuli/25B2.jpg,Stimuli/25B3.jpg,Stimuli/25C1.jpg,Stimuli/25C2.jpg,Stimuli/25C3.jpg,,,,,0,4,4,25,,,,,,,,516.3930666000006,None,517.3931682000002,None,523.3933539999998,None,"[0.399, -0.003]","[-0.2, 0.346]","[-0.203, -0.347]","[0.306, 0.255]","[-0.377, 0.138]","[0.066, -0.395]","[0.07, 0.393]","[-0.378, -0.136]","[0.304, -0.26]",,10.02433873999962,4.391796839999188,13.491662039999937,"[-0.30833333333333335, 0.47129629629629627, 0.26851851851851855]","[0.07037037037037037, -0.023148148148148147, -0.21203703703703702]","[1, 1, 1]","[0, 0, 0]","[0, 0, 0]","[4.384932900000422, 10.01783020000039, 13.484370600000148]",0.00610893999964901,13.490381539999362,['A1'],['B2'],['C3'],['blue'],['yellow'],['salmon'],538.8092281999998,None,10.0,2.3637573999994856,538.8092281999998,None,541.2426538,None,10.0,5.081111199999214,549.5257038,None,10.0,3.6146833000002516,546.6424942000003,None,8.0,3.1314462999998796,<function functionImportanceA at 0x000001425162A730>,<function functionImportanceC at 0x0000014200443510>,<function functionImportanceB at 0x0000014200443AE8>,,,-0.0,5.848126999999295,-0.0,6.180918600000041,2.0,5.081111199999214,<function functiondiffB at 0x0000014200CBE9D8>,<function functiondiffA at 0x0000014200CBE8C8>,<function functiondiffC at 0x0000014200443598>,,,,,524.8520337999998,553.1090150999999,None,558.9588524000001,None,565.2417728,None,16,001,2022_Jul_19_1012,2leo,2021.2.3,60.00535247770309,
3,26,Plan how to wash one round of your laundry ,Stimuli/26A1.jpg,Stimuli/26A2.jpg,Stimuli/26A3.jpg,Stimuli/26B1.jpg,Stimuli/26B2.jpg,Stimuli/26B3.jpg,Stimuli/26C1.jpg,Stimuli/26C2.jpg,Stimuli/26C3.jpg,,,,,0,5,5,26,,,,,,,,568.4415619000001,None,569.4417098000004,None,575.4416860000001,None,"[-0.2, 0.346]","[0.399, -0.003]","[-0.203, -0.347]","[-0.377, 0.138]","[0.306, 0.255]","[0.066, -0.395]","[-0.378, -0.136]","[0.07, 0.393]","[0.304, -0.26]",,19.95507553999869,12.038953839998612,3.822873539998909,"[-0.30462962962962964, 0.2777777777777778, 0.37407407407407406]","[-0.11481481481481481, 0.1814814814814815, 0.03425925925925926]","[1, 1, 1]","[0, 0, 0]","[0, 0, 0]","[3.810371099999429, 12.026651399999537, 19.943035499999496]",0.011541039998519409,19.954358639998645,['A2'],['B2'],['C1'],['yellow'],['salmon'],['blue'],596.9740928000001,None,9.0,4.096825600000557,596.9740928000001,None,604.8908080000001,None,8.0,6.048399000000245,601.1409002999999,None,10.0,3.747995899999296,610.9740416000004,None,10.0,3.581839999999829,<function functionImportanceB at 0x0000014200443268>,<function functionImportanceA at 0x0000014200443730>,<function functionImportanceC at 0x00000142004431E0>,,,2.0,5.830986500000108,10.0,3.1980810000004567,0.0,6.048399000000245,<function functiondiffA at 0x000001425168F840>,<function functiondiffC at 0x000001425162A8C8>,<function functiondiffB at 0x000001425162A378>,,,,,576.546222,621.2736522000005,None,614.5405483000004,None,617.7570351000004,None,16,001,2022_Jul_19_1012,2leo,2021.2.3,60.00535247770309,
3,2,Plan which ingredients you want to use for cooking dinner today,Stimuli/2A1.jpg,Stimuli/2A2.jpg,Stimuli/2A3.jpg,Stimuli/2B1.jpg,Stimuli/2B2.jpg,Stimuli/2B3.jpg,Stimuli/2C1.jpg,Stimuli/2C2.jpg,Stimuli/2C3.jpg,,,,,0,6,6,2,,,,,,,,626.623364,None,627.6234033000001,None,633.6234986,None,"[0.304, -0.26]","[0.07, 0.393]","[-0.378, -0.136]","[0.066, -0.395]","[0.306, 0.255]","[-0.377, 0.138]","[-0.203, -0.347]","[0.399, -0.003]","[-0.2, 0.346]",,18.04009141999086,9.40699111999038,13.90711131999069,"[0.12314814814814815, -0.15833333333333333, 0.11296296296296296]","[-0.3787037037037037, -0.31666666666666665, 0.4203703703703704]","[1, 1, 1]","[0, 0, 0]","[0, 0, 0]","[9.393933899999865, 13.893814899999597, 18.027240800000072]",0.012351719990874699,18.039175419990897,['A2'],['B1'],['C1'],['blue'],['salmon'],['yellow'],658.1891321000003,None,10.0,3.5465724999994563,658.1891321000003,None,662.8891426,None,3.0,7.080708200000117,672.1888559999998,None,7.0,10.698284199999762,680.2219921000005,None,9.0,6.664715300000353,<function functionImportanceA at 0x0000014200443840>,<function functionImportanceB at 0x00000142004437B8>,<function functionImportanceC at 0x0000014200443C80>,,,-0.0,3.6144360999996934,7.0,4.014740800000254,-0.0,7.080708200000117,<function functiondiffC at 0x0000014200443E18>,<function functiondiffB at 0x0000014200443F28>,<function functiondiffA at 0x0000014200443620>,,,,,639.6962009999997,692.3884438000005,None,695.4881845,None,686.4551756999999,None,16,001,2022_Jul_19_1012,2leo,2021.2.3,60.00535247770309,
3,36,Plan your shopping for new clothing,Stimuli/36A1.jpg,Stimuli/36A2.jpg,Stimuli/36A3.jpg,Stimuli/36B1.jpg,Stimuli/36B2.jpg,Stimuli/36B3.jpg,Stimuli/36C1.jpg,Stimuli/36C2.jpg,Stimuli/36C3.jpg,,,,,0,7,7,36,,,,,,,,698.7045843000005,None,699.704839,None,705.7047041000005,None,"[0.07, 0.393]","[-0.378, -0.136]","[0.304, -0.26]","[0.306, 0.255]","[-0.377, 0.138]","[0.066, -0.395]","[0.399, -0.003]","[-0.2, 0.346]","[-0.203, -0.347]",,13.905914980000489,9.272935080000934,20.106266780000624,"[0.2898148148148148, -0.32222222222222224, -0.17685185185185184]","[0.2675925925925926, -0.1574074074074074, 0.3490740740740741]","[1, 1, 1]","[0, 0, 0]","[0, 0, 0]","[9.268376099999841, 13.901583500000015, 20.101413299999876]",0.0038092800004960736,20.105037880000964,['A2'],['B1'],['C2'],['salmon'],['yellow'],['blue'],727.4370369999997,None,10.0,3.047070700000404,727.4370369999997,None,734.0870302000003,None,10.0,2.2485376999993605,736.3871592000005,None,2.0,4.331991000000016,730.5706250000003,None,9.0,3.4810718999997334,<function functionImportanceC at 0x000001425162A6A8>,<function functionImportanceA at 0x0000014200443B70>,<function functionImportanceB at 0x0000014200CBEEA0>,,,8.0,4.3647409999994125,6.0,6.264558200000465,4.0,2.2485376999993605,<function functiondiffB at 0x00000142004430D0>,<function functiondiffC at 0x0000014200443048>,<function functiondiffA at 0x0000014200443BF8>,,,,,706.8517016000005,740.6370095000002,None,751.9864880000005,None,745.0035045000004,None,16,001,2022_Jul_19_1012,2leo,2021.2.3,60.00535247770309,
3,22,Plan a beach day with your friends,Stimuli/22A1.jpg,Stimuli/22A2.jpg,Stimuli/22A3.jpg,Stimuli/22B1.jpg,Stimuli/22B2.jpg,Stimuli/22B3.jpg,Stimuli/22C1.jpg,Stimuli/22C2.jpg,Stimuli/22C3.jpg,,,,,0,8,8,22,,,,,,,,757.7696195999997,None,758.7699574999997,None,764.7696728999999,None,"[-0.377, 0.138]","[0.066, -0.395]","[0.306, 0.255]","[-0.378, -0.136]","[0.304, -0.26]","[0.07, 0.393]","[-0.2, 0.346]","[-0.203, -0.347]","[0.399, -0.003]",,10.669201059999978,15.219474760000594,5.136529260000316,"[-0.14074074074074075, 0.2824074074074074, 0.3398148148148148]","[-0.30462962962962964, 0.17962962962962964, -0.28888888888888886]","[1, 1, 1]","[0, 0, 0]","[0, 0, 0]","[5.133526499999789, 10.6666452999998, 15.216749600000185]",0.001960960000360501,15.218467460000284,['A3'],['B2'],['C2'],['blue'],['salmon'],['yellow'],781.6021099,None,10.0,2.647291399999631,781.6021099,None,793.7354322000001,None,1.0,4.414463699999942,784.3022695,None,9.0,5.314659700000448,789.6687649000005,None,10.0,4.06538189999992,<function functionImportanceB at 0x0000014200443950>,<function functionImportanceC at 0x0000014200CBE620>,<function functionImportanceA at 0x00000142004432F0>,,,2.0,5.431396599999971,1.0,4.231073199999628,6.0,4.414463699999942,<function functiondiffB at 0x0000014200443400>,<function functiondiffA at 0x0000014200443A60>,<function functiondiffC at 0x0000014200443D08>,,,,,765.9012733999998,798.1353589999999,None,803.5852648999999,None,807.8350535,None,16,001,2022_Jul_19_1012,2leo,2021.2.3,60.00535247770309,
3,34,Plan what car you want to buy,Stimuli/34A1.jpg,Stimuli/34A2.jpg,Stimuli/34A3.jpg,Stimuli/34B1.jpg,Stimuli/34B2.jpg,Stimuli/34B3.jpg,Stimuli/34C1.jpg,Stimuli/34C2.jpg,Stimuli/34C3.jpg,,,,,0,9,9,34,,,,,,,,812.0013614,None,813.0014855999998,None,819.0014950000004,None,"[-0.377, 0.138]","[0.066, -0.395]","[0.306, 0.255]","[-0.2, 0.346]","[-0.203, -0.347]","[0.399, -0.003]","[-0.378, -0.136]","[0.304, -0.26]","[0.07, 0.393]",,19.67213547999654,11.639436579996072,15.756539179996253,"[-0.19814814814814816, 0.36666666666666664, -0.31574074074074077]","[0.31203703703703706, -0.2111111111111111, 0.07314814814814814]","[1, 1, 1]","[0, 0, 0]","[0, 0, 0]","[11.625172099999872, 15.741893099999288, 19.658153800000036]",0.013543779996325611,19.671664079995935,['A1'],['B1'],['C2'],['yellow'],['salmon'],['blue'],842.2173216000001,None,7.0,3.563049100000171,842.2173216000001,None,846.8568549000001,None,10.0,4.5644555999997465,851.3837900999997,None,1.0,9.498081900000216,859.9502167999999,None,8.0,4.481672199999593,<function functionImportanceA at 0x00000142004439D8>,<function functionImportanceB at 0x00000142017160D0>,<function functionImportanceC at 0x0000014201716378>,,,10.0,3.681165800000599,0.0,3.997895599999538,0.0,4.5644555999997465,<function functiondiffC at 0x0000014200443378>,<function functiondiffA at 0x0000014200443488>,<function functiondiffB at 0x0000014200443D90>,,,,,822.0918576000004,872.5997831000004,None,868.6833858999998,None,864.4001063000005,None,16,001,2022_Jul_19_1012,2leo,2021.2.3,60.00535247770309,
3,27,Plan what festival to visit with your friends,Stimuli/27A1.jpg,Stimuli/27A2.jpg,Stimuli/27A3.jpg,Stimuli/27B1.jpg,Stimuli/27B2.jpg,Stimuli/27B3.jpg,Stimuli/27C1.jpg,Stimuli/27C2.jpg,Stimuli/27C3.jpg,,,,,0,10,10,27,,,,,,,,875.5662861000001,None,876.5663278000002,None,882.5663390999998,None,"[0.399, -0.003]","[-0.2, 0.346]","[-0.203, -0.347]","[0.306, 0.255]","[-0.377, 0.138]","[0.066, -0.395]","[0.07, 0.393]","[-0.378, -0.136]","[0.304, -0.26]",,17.18187965999914,22.44865245999972,12.115635359999033,"[0.24722222222222223, 0.4083333333333333, -0.34629629629629627]","[-0.2611111111111111, -0.037037037037037035, 0.07037037037037037]","[1, 1, 1]","[0, 0, 0]","[0, 0, 0]","[12.097905800000262, 17.164866399999482, 22.431257899999764]",0.016619559999526246,22.447634859999198,['A1'],['B2'],['C3'],['salmon'],['blue'],['yellow'],906.5988324999998,None,9.0,3.9467813000001115,906.5988324999998,None,910.6320708000003,None,10.0,4.581097000000227,919.0485582000001,None,6.0,4.864967900000011,915.1984069999999,None,8.0,3.7984953999994104,<function functionImportanceA at 0x0000014201716510>,<function functionImportanceC at 0x0000014201716488>,<function functionImportanceB at 0x0000014201716620>,,,2.0,4.397760099999687,7.0,2.8147124999995867,10.0,4.581097000000227,<function functiondiffC at 0x0000014200CBE730>,<function functiondiffB at 0x0000014200CBEF28>,<function functiondiffA at 0x0000014200443158>,,,,,883.683016,927.5484099000005,None,931.9647077999998,None,923.881789,None,16,001,2022_Jul_19_1012,2leo,2021.2.3,60.00535247770309,
3,38,Plan how you want to go for a run,Stimuli/38A1.jpg,Stimuli/38A2.jpg,Stimuli/38A3.jpg,Stimuli/38B1.jpg,Stimuli/38B2.jpg,Stimuli/38B3.jpg,Stimuli/38C1.jpg,Stimuli/38C2.jpg,Stimuli/38C3.jpg,,,,,0,11,11,38,,,,,,,,934.2979704999998,None,935.2979568999999,None,941.2981927000001,None,"[-0.378, -0.136]","[0.07, 0.393]","[0.304, -0.26]","[-0.377, 0.138]","[0.306, 0.255]","[0.066, -0.395]","[-0.2, 0.346]","[0.399, -0.003]","[-0.203, -0.347]",,10.690961559999778,4.325105359999725,14.191815759999372,"[-0.35648148148148145, -0.008333333333333333, -0.16574074074074074]","[0.0787037037037037, 0.3509259259259259, -0.33240740740740743]","[1, 1, 1]","[0, 0, 0]","[0, 0, 0]","[4.311016399999971, 10.677011599999787, 14.177293699999609]",0.013408459999482147,14.190526759999557,['A2'],['B1'],['C3'],['yellow'],['salmon'],['blue'],957.1640103999998,None,10.0,2.363662099999601,957.1640103999998,None,959.5974839999999,None,10.0,5.297596700000213,964.8974485999997,None,9.0,3.4817103000004863,968.4972348000001,None,8.0,3.616035400000328,<function functionImportanceA at 0x00000142017168C8>,<function functionImportanceB at 0x00000142017166A8>,<function functionImportanceC at 0x0000014201716048>,,,2.0,8.396954599999845,1.0,3.631074500000068,3.0,5.297596700000213,<function functiondiffB at 0x0000014201716A60>,<function functiondiffA at 0x0000014201716B70>,<function functiondiffC at 0x00000142004438C8>,,,,,942.5025565000005,972.0137059999997,None,980.4302689000006,None,984.0967793999998,None,16,001,2022_Jul_19_1012,2leo,2021.2.3,60.00535247770309,
3,44,Plan a party at your place,Stimuli/44A1.jpg,Stimuli/44A2.jpg,Stimuli/44A3.jpg,Stimuli/44B1.jpg,Stimuli/44B2.jpg,Stimuli/44B3.jpg,Stimuli/44C1.jpg,Stimuli/44C2.jpg,Stimuli/44C3.jpg,,,,,0,12,12,44,,,,,,,,986.5131712000002,None,987.5132673999997,None,993.5132959000002,None,"[0.306, 0.255]","[-0.377, 0.138]","[0.066, -0.395]","[0.399, -0.003]","[-0.2, 0.346]","[-0.203, -0.347]","[0.07, 0.393]","[-0.378, -0.136]","[0.304, -0.26]",,8.968700339998577,4.6875389399992855,13.418952939999144,"[-0.1574074074074074, 0.33425925925925926, -0.001851851851851852]","[-0.3416666666666667, 0.16944444444444445, 0.39166666666666666]","[1, 1, 1]","[0, 0, 0]","[0, 0, 0]","[4.683678000000327, 8.966711799999757, 13.416400000000067]",0.0015783399994688807,13.417967939999471,['A1'],['B3'],['C1'],['yellow'],['blue'],['salmon'],1008.5293097000003,None,10.0,2.063971199999287,1008.5293097000003,None,1014.2459194000003,None,7.0,10.281458700000258,1024.5621565000001,None,10.0,3.982093700000405,1010.6661346999999,None,8.0,3.5812896999996156,<function functionImportanceC at 0x0000014201716D08>,<function functionImportanceA at 0x0000014201716158>,<function functionImportanceB at 0x0000014201716D90>,,,7.0,3.9645913999993354,2.0,6.414150699999482,3.0,10.281458700000258,<function functiondiffA at 0x0000014200CBE840>,<function functiondiffB at 0x0000014201716C80>,<function functiondiffC at 0x0000014201716BF8>,,,,,994.6283622999999,1034.9619804000004,None,1028.5288667000004,None,1038.9450789000002,None,16,001,2022_Jul_19_1012,2leo,2021.2.3,60.00535247770309,
3,20,Plan a tea party with your friends,Stimuli/20A1.jpg,Stimuli/20A2.jpg,Stimuli/20A3.jpg,Stimuli/20B1.jpg,Stimuli/20B2.jpg,Stimuli/20B3.jpg,Stimuli/20C1.jpg,Stimuli/20C2.jpg,Stimuli/20C3.jpg,,,,,0,13,13,20,,,,,,,,1041.9617189,None,1042.9616378,None,1048.9616235000003,None,"[0.07, 0.393]","[0.304, -0.26]","[-0.378, -0.136]","[0.306, 0.255]","[0.066, -0.395]","[-0.377, 0.138]","[0.399, -0.003]","[-0.203, -0.347]","[-0.2, 0.346]",,11.463748999995005,15.330889699995168,4.148102799995286,"[-0.2574074074074074, 0.07037037037037037, 0.36574074074074076]","[0.275, 0.36018518518518516, 0.225]","[1, 1, 1]","[0, 0, 0]","[0, 0, 0]","[4.144012499999917, 11.46032539999942, 15.327207899999848]",0.0030122999951345264,15.329927499995392,['A1'],['B1'],['C3'],['yellow'],['salmon'],['blue'],1068.2942902000004,None,10.0,2.3635537000000113,1068.2942902000004,None,1070.7442449,None,9.0,4.0478613999994195,1080.6606609,None,8.0,6.331398299999819,1074.7777612,None,8.0,3.4487152000001515,<function functionImportanceA at 0x0000014200CBE048>,<function functionImportanceC at 0x0000014200FA9950>,<function functionImportanceB at 0x0000014201716E18>,,,-0.0,3.5809385000002294,10.0,2.4481443999993644,2.0,4.0478613999994195,<function functiondiffC at 0x0000014201716950>,<function functiondiffB at 0x0000014201716400>,<function functiondiffA at 0x0000014201716268>,,,,,1052.4983641,1091.5614984000003,None,1094.6270647000001,None,1084.5776071,None,16,001,2022_Jul_19_1012,2leo,2021.2.3,60.00535247770309,
3,16,Plan a delicious cake for the birthday of a friend,Stimuli/16A1.jpg,Stimuli/16A2.jpg,Stimuli/16A3.jpg,Stimuli/16B1.jpg,Stimuli/16B2.jpg,Stimuli/16B3.jpg,Stimuli/16C1.jpg,Stimuli/16C2.jpg,Stimuli/16C3.jpg,,,,,0,14,14,16,,,,,,,,1096.5934748,None,1097.5937414,None,1103.5934994999998,None,"[-0.203, -0.347]","[-0.2, 0.346]","[0.399, -0.003]","[0.066, -0.395]","[-0.377, 0.138]","[0.306, 0.255]","[0.304, -0.26]","[-0.378, -0.136]","[0.07, 0.393]",,4.829413020000175,14.912789119999616,10.879759120000017,"[-0.2222222222222222, -0.31296296296296294, -0.35]","[-0.3527777777777778, -0.18333333333333332, 0.09166666666666666]","[1, 1, 1]","[0, 0, 0]","[0, 0, 0]","[4.81213630000002, 10.861774699999842, 14.895164200000181]",0.016835919999721227,14.911943119999705,['A1'],['B2'],['C2'],['salmon'],['yellow'],['blue'],1120.3928354,None,10.0,2.5304943000001003,1120.3928354,None,1122.9928166,None,10.0,3.797611599999982,1132.242741,None,9.0,3.0315749999999753,1126.8758656999998,None,8.0,5.148522600000433,<function functionImportanceA at 0x0000014200FA9E18>,<function functionImportanceC at 0x0000014200FA96A8>,<function functionImportanceB at 0x0000014200FA9D90>,,,0.0,2.2146887000008064,3.0,3.7979230999999345,1.0,3.797611599999982,<function functiondiffA at 0x0000014200FA9488>,<function functiondiffB at 0x0000014200FA9400>,<function functiondiffC at 0x0000014200FA9840>,,,,,1105.0133803999997,1138.8588623000005,None,1134.9925936999998,None,1141.0589416000003,None,16,001,2022_Jul_19_1012,2leo,2021.2.3,60.00535247770309,
3,10,Plan a restaurant visit with your family on the weekend ,Stimuli/10A1.jpg,Stimuli/10A2.jpg,Stimuli/10A3.jpg,Stimuli/10B1.jpg,Stimuli/10B2.jpg,Stimuli/10B3.jpg,Stimuli/10C1.jpg,Stimuli/10C2.jpg,Stimuli/10C3.jpg,,,,,0,15,15,10,,,,,,,,1168.6582721000004,None,1169.6582825000005,None,1175.6581607999997,None,"[-0.203, -0.347]","[-0.2, 0.346]","[0.399, -0.003]","[0.066, -0.395]","[-0.377, 0.138]","[0.306, 0.255]","[0.304, -0.26]","[-0.378, -0.136]","[0.07, 0.393]",,16.84471241999381,27.328207319993453,2.9293869199937035,"[-0.3351851851851852, -0.14722222222222223, 0.2361111111111111]","[-0.09444444444444444, -0.2898148148148148, 0.18981481481481483]","[1, 1, 1]","[0, 0, 0]","[0, 0, 0]","[2.9157867000003534, 16.831734100000176, 27.314743500000077]",0.01258111999322864,27.327265419993637,['A1'],['B3'],['C2'],['salmon'],['blue'],['yellow'],1207.4068871,None,9.0,4.446936600000299,1207.4068871,None,1220.8233441000002,None,8.0,4.198523300000488,1214.6736213000004,None,10.0,6.8811381000004985,1218.8069575,None,10.0,1.8814672000007704,<function functionImportanceB at 0x0000014200FA9BF8>,<function functionImportanceC at 0x0000014200FA9158>,<function functionImportanceA at 0x0000014200FA9B70>,,,10.0,2.9481043999994654,9.0,3.797123399999691,3.0,4.198523300000488,<function functiondiffA at 0x0000014200FA9F28>,<function functiondiffB at 0x0000014200FA97B8>,<function functiondiffC at 0x0000014200FA9EA0>,,,,,1179.6246859000003,1229.4898728999997,None,1224.9233369000003,None,1231.6897772000002,None,16,001,2022_Jul_19_1012,2leo,2021.2.3,60.00535247770309,
3,8,Plan the interior of your living-room ,Stimuli/8A1.jpg,Stimuli/8A2.jpg,Stimuli/8A3.jpg,Stimuli/8B1.jpg,Stimuli/8B2.jpg,Stimuli/8B3.jpg,Stimuli/8C1.jpg,Stimuli/8C2.jpg,Stimuli/8C3.jpg,,,,,0,16,16,8,,,,,,,,1234.9894799000003,None,1235.9897891,None,1241.9895229000003,None,"[-0.378, -0.136]","[0.304, -0.26]","[0.07, 0.393]","[-0.377, 0.138]","[0.066, -0.395]","[0.306, 0.255]","[-0.2, 0.346]","[-0.203, -0.347]","[0.399, -0.003]",,9.250690879993272,24.13394647999303,17.05121997999322,"[-0.35555555555555557, 0.44074074074074077, -0.3509259259259259]","[-0.11388888888888889, -0.058333333333333334, 0.10277777777777777]","[1, 1, 1]","[0, 0, 0]","[0, 0, 0]","[9.247407900000326, 17.047262400000363, 24.130421800000477]",0.002867679992959893,24.133119379992422,['A1'],['B1'],['C3'],['salmon'],['yellow'],['blue'],1271.3718156000004,None,10.0,2.2639345999996294,1271.3718156000004,None,1284.2049414000003,None,9.0,3.5649703999997655,1281.2715300999998,None,9.0,4.74865249999948,1275.6382405000004,None,10.0,5.714515700000447,<function functionImportanceC at 0x0000014201268158>,<function functionImportanceB at 0x0000014201716F28>,<function functionImportanceA at 0x0000014200FA9D08>,,,0.0,3.6146246000007523,3.0,6.180982199999562,8.0,3.5649703999997655,<function functiondiffA at 0x0000014200CBEE18>,<function functiondiffC at 0x0000014200FA9A60>,<function functiondiffB at 0x0000014200FA9378>,,,,,1246.7747786,1300.7378604000005,None,1287.7548689000005,None,1294.5212788999997,None,16,001,2022_Jul_19_1012,2leo,2021.2.3,60.00535247770309,
3,19,Plan how you want your garden to look like,Stimuli/19A1.jpg,Stimuli/19A2.jpg,Stimuli/19A3.jpg,Stimuli/19B1.jpg,Stimuli/19B2.jpg,Stimuli/19B3.jpg,Stimuli/19C1.jpg,Stimuli/19C2.jpg,Stimuli/19C3.jpg,,,,,0,17,17,19,,,,,,,,1303.3375916000005,None,1304.3378561,None,1310.3376429,None,"[-0.377, 0.138]","[0.306, 0.255]","[0.066, -0.395]","[-0.378, -0.136]","[0.07, 0.393]","[0.304, -0.26]","[-0.2, 0.346]","[0.399, -0.003]","[-0.203, -0.347]",,18.039814099995965,8.490363699995214,5.091832999995859,"[-0.15925925925925927, 0.075, 0.23333333333333334]","[0.28055555555555556, 0.3472222222222222, 0.22314814814814815]","[1, 1, 1]","[0, 0, 0]","[0, 0, 0]","[5.097514800000681, 8.480983899999956, 18.030724199999895]",0.008596999995461374,18.039036299995132,['A2'],['B2'],['C1'],['yellow'],['salmon'],['blue'],1332.5367883999998,None,9.0,3.4632986000005985,1332.5367883999998,None,1343.5867827000002,None,9.0,4.365354999999909,1349.1064726000004,None,10.0,3.7815679999994245,1337.5067455999997,None,9.0,7.481097199999567,<function functionImportanceC at 0x0000014201268B70>,<function functionImportanceA at 0x0000014201268BF8>,<function functionImportanceB at 0x0000014201268400>,,,4.0,3.4978878000001714,7.0,5.781032800000503,0.0,4.365354999999909,<function functiondiffA at 0x0000014200FA91E0>,<function functiondiffC at 0x0000014201268C80>,<function functiondiffB at 0x0000014200FA9AE8>,,,,,1314.0420892000002,1360.6028983000006,None,1351.7198004000002,None,1357.8695349,None,16,001,2022_Jul_19_1012,2leo,2021.2.3,60.00535247770309,
3,3,Plan a movie night with a friend,Stimuli/3A1.jpg,Stimuli/3A2.jpg,Stimuli/3A3.jpg,Stimuli/3B1.jpg,Stimuli/3B2.jpg,Stimuli/3B3.jpg,Stimuli/3C1.jpg,Stimuli/3C2.jpg,Stimuli/3C3.jpg,,,,,0,18,18,3,,,,,,,,1363.3689967,None,1364.3693376,None,1370.3693954,None,"[0.066, -0.395]","[0.306, 0.255]","[-0.377, 0.138]","[0.304, -0.26]","[0.07, 0.393]","[-0.378, -0.136]","[-0.203, -0.347]","[0.399, -0.003]","[-0.2, 0.346]",,14.016888539996216,4.6847798399958265,7.5178759399959745,"[-0.4305555555555556, 0.34074074074074073, -0.4074074074074074]","[-0.12222222222222222, -0.04351851851851852, 0.08611111111111111]","[1, 1, 1]","[0, 0, 0]","[0, 0, 0]","[4.670789699999659, 7.503686799999741, 14.003160600000228]",0.013113139995766687,14.016207439995924,['A3'],['B3'],['C2'],['salmon'],['yellow'],['blue'],1388.4018771,None,9.0,3.297787900000003,1388.4018771,None,1397.8350006,None,10.0,2.5817040000001725,1401.1849847000003,None,8.0,4.265044499999931,1393.5518964000003,None,8.0,6.047832700000072,<function functionImportanceC at 0x0000014201268F28>,<function functionImportanceA at 0x00000142012682F0>,<function functionImportanceB at 0x0000014201268A60>,,,1.0,4.664434700000129,7.0,4.714726100000007,1.0,2.5817040000001725,<function functiondiffC at 0x0000014200FA9598>,<function functiondiffA at 0x00000142012688C8>,<function functiondiffB at 0x0000014200FA90D0>,,,,,1373.9313076999997,1412.7182926000005,None,1407.6182731,None,1405.0182335,None,16,001,2022_Jul_19_1012,2leo,2021.2.3,60.00535247770309,
3,15,Plan your own Pasta for lunch,Stimuli/15A1.jpg,Stimuli/15A2.jpg,Stimuli/15A3.jpg,Stimuli/15B1.jpg,Stimuli/15B2.jpg,Stimuli/15B3.jpg,Stimuli/15C1.jpg,Stimuli/15C2.jpg,Stimuli/15C3.jpg,,,,,0,19,19,15,,,,,,,,1416.5343621000002,None,1417.5345179000005,None,1423.5342497000001,None,"[-0.378, -0.136]","[0.07, 0.393]","[0.304, -0.26]","[-0.377, 0.138]","[0.306, 0.255]","[0.066, -0.395]","[-0.2, 0.346]","[0.399, -0.003]","[-0.203, -0.347]",,21.23568759999762,20.535741199997574,8.270004299997709,"[-0.16944444444444445, -0.32407407407407407, -0.3287037037037037]","[-0.3453703703703704, 0.08796296296296297, -0.125]","[1, 1, 1]","[0, 0, 0]","[0, 0, 0]","[8.262754099999256, 20.52891989999989, 21.229157799999484]",0.006125999997493636,21.235099399998035,['A1'],['B1'],['C3'],['blue'],['salmon'],['yellow'],1447.1669137999997,None,10.0,2.9968541999996887,1447.1669137999997,None,1450.3002375000005,None,10.0,5.081128399999216,1455.3500273,None,9.0,2.6483939999998256,1458.7667690999997,None,9.0,3.3153427999995984,<function functionImportanceA at 0x0000014201268950>,<function functionImportanceB at 0x00000142012687B8>,<function functionImportanceC at 0x0000014201268598>,,,7.0,6.064306399999623,4.0,3.7146112999998877,-0.0,5.081128399999216,<function functiondiffB at 0x0000014200FA9620>,<function functiondiffA at 0x0000014200FA9730>,<function functiondiffC at 0x0000014200FA9C80>,,,,,1425.4682578000002,1461.3000442000002,None,1467.3831662000002,None,1471.2497148000002,None,16,001,2022_Jul_19_1012,2leo,2021.2.3,60.00535247770309,
3,5,Plan a birthday party for your younger self when you turn eight,Stimuli/5A1.jpg,Stimuli/5A2.jpg,Stimuli/5A3.jpg,Stimuli/5B1.jpg,Stimuli/5B2.jpg,Stimuli/5B3.jpg,Stimuli/5C1.jpg,Stimuli/5C2.jpg,Stimuli/5C3.jpg,,,,,0,20,20,5,,,,,,,,1474.8660818999997,None,1475.8663256,None,1481.8662474000002,None,"[0.066, -0.395]","[-0.377, 0.138]","[0.306, 0.255]","[0.304, -0.26]","[-0.378, -0.136]","[0.07, 0.393]","[-0.203, -0.347]","[-0.2, 0.346]","[0.399, -0.003]",,16.748065619991394,22.39816971999153,25.231668819991683,"[-0.41759259259259257, 0.10185185185185185, -0.17407407407407408]","[0.07685185185185185, 0.31851851851851853, -0.3]","[1, 1, 1]","[0, 0, 0]","[0, 0, 0]","[16.741046100000858, 22.390767200000482, 25.2242367000008]",0.006494819991530676,25.230592719991364,['A2'],['B3'],['C1'],['yellow'],['salmon'],['blue'],1513.2983144999998,None,10.0,3.5135055999999167,1513.2983144999998,None,1531.6817455,None,1.0,8.764729000000443,1522.7989236000003,None,8.0,7.781619100000171,1517.515015,None,9.0,4.431003499999861,<function functionImportanceC at 0x0000014201268AE8>,<function functionImportanceB at 0x0000014201268378>,<function functionImportanceA at 0x00000142012681E0>,,,1.0,5.780840000000353,9.0,3.681126399999812,3.0,8.764729000000443,<function functiondiffB at 0x00000142017162F0>,<function functiondiffA at 0x00000142012686A8>,<function functiondiffC at 0x0000014201716AE8>,,,,,1487.6103465000006,1538.2477876000003,None,1544.4477256999999,None,1547.4976090999999,None,16,001,2022_Jul_19_1012,2leo,2021.2.3,60.00535247770309,
3,0,Plan a barbecue,Stimuli/0A1.jpg,Stimuli/0A2.jpg,Stimuli/0A3.jpg,Stimuli/0B1.jpg,Stimuli/0B2.jpg,Stimuli/0B3.jpg,Stimuli/0C1.jpg,Stimuli/0C2.jpg,Stimuli/0C3.jpg,,,,,0,21,21,0,,,,,,,,1550.0304733000003,None,1551.0308448000005,None,1557.0308282000005,None,"[-0.378, -0.136]","[0.304, -0.26]","[0.07, 0.393]","[-0.377, 0.138]","[0.066, -0.395]","[0.306, 0.255]","[-0.2, 0.346]","[-0.203, -0.347]","[0.399, -0.003]",,10.103339979997145,20.587171779997334,18.57151287999659,"[-0.33425925925925926, 0.4027777777777778, -0.362962962962963]","[-0.13240740740740742, -0.03148148148148148, 0.1685185185185185]","[1, 1, 1]","[0, 0, 0]","[0, 0, 0]","[10.093541899999764, 18.560984099999587, 20.577130799999395]",0.009372479997182381,20.586226079996777,['A1'],['B1'],['C3'],['blue'],['yellow'],['salmon'],1580.5798679,None,7.0,3.546485500000017,1580.5798679,None,1592.7963764000006,None,10.0,3.9484417000003305,1588.7297083000003,None,9.0,2.648135100000218,1584.213224,None,8.0,4.4651732000002085,<function functionImportanceC at 0x0000014201268730>,<function functionImportanceB at 0x0000014201268D08>,<function functionImportanceA at 0x0000014201716840>,,,3.0,4.464377600000262,10.0,5.331138900000042,-0.0,3.9484417000003305,<function functiondiffB at 0x0000014201268E18>,<function functiondiffA at 0x000001425162A9D8>,<function functiondiffC at 0x00000142012680D0>,,,,,1559.5332792999998,1595.2629619,None,1600.1462026,None,1605.1126525999998,None,16,001,2022_Jul_19_1012,2leo,2021.2.3,60.00535247770309,
3,28,Plan a one-week camping trip in Spain,Stimuli/28A1.jpg,Stimuli/28A2.jpg,Stimuli/28A3.jpg,Stimuli/28B1.jpg,Stimuli/28B2.jpg,Stimuli/28B3.jpg,Stimuli/28C1.jpg,Stimuli/28C2.jpg,Stimuli/28C3.jpg,,,,,0,22,22,28,,,,,,,,1609.1787572000003,None,1610.1789503999998,None,1616.1793423,None,"[0.399, -0.003]","[-0.2, 0.346]","[-0.203, -0.347]","[0.306, 0.255]","[-0.377, 0.138]","[0.066, -0.395]","[0.07, 0.393]","[-0.378, -0.136]","[0.304, -0.26]",,22.57208595999964,13.589765659999102,17.422926659999575,"[0.08611111111111111, -0.3425925925925926, -0.1259259259259259]","[-0.43425925925925923, -0.16944444444444445, -0.3287037037037037]","[1, 1, 1]","[0, 0, 0]","[0, 0, 0]","[13.57710330000009, 17.41009920000033, 22.559679700000743]",0.011803159999544732,22.571157859999403,['A3'],['B3'],['C2'],['salmon'],['blue'],['yellow'],1640.3449791000003,None,10.0,2.513555499999711,1640.3449791000003,None,1642.9617192000005,None,10.0,2.4975570000005973,1648.244804,None,9.0,3.864895599999727,1645.4281579999997,None,10.0,2.7983518000000913,<function functionImportanceA at 0x0000014200FA9048>,<function functionImportanceC at 0x00000142020D7840>,<function functionImportanceB at 0x0000014201268268>,,,2.0,4.181127799999558,9.0,3.481266599999799,0.0,2.4975570000005973,<function functiondiffA at 0x0000014200FA9510>,<function functiondiffB at 0x0000014201268840>,<function functiondiffC at 0x0000014200CBE950>,,,,,1617.2992978000002,1655.6111228999998,None,1652.1130844999998,None,1659.8111471000002,None,16,001,2022_Jul_19_1012,2leo,2021.2.3,60.00535247770309,
3,39,Plan what kind of watch you want to buy,Stimuli/39A1.jpg,Stimuli/39A2.jpg,Stimuli/39A3.jpg,Stimuli/39B1.jpg,Stimuli/39B2.jpg,Stimuli/39B3.jpg,Stimuli/39C1.jpg,Stimuli/39C2.jpg,Stimuli/39C3.jpg,,,,,0,23,23,39,,,,,,,,1662.1938793999998,None,1663.1942828,None,1669.1942669999999,None,"[0.399, -0.003]","[-0.203, -0.347]","[-0.2, 0.346]","[0.07, 0.393]","[0.304, -0.26]","[-0.378, -0.136]","[0.306, 0.255]","[0.066, -0.395]","[-0.377, 0.138]",,17.890962679999575,25.807400879999477,15.258237979999649,"[0.11944444444444445, -0.14444444444444443, 0.08055555555555556]","[-0.33240740740740743, -0.2777777777777778, 0.31666666666666665]","[1, 1, 1]","[0, 0, 0]","[0, 0, 0]","[15.252520200000617, 17.885879999999815, 25.802137700000458]",0.004572779999762133,25.80656527999963,['A2'],['B1'],['C2'],['blue'],['salmon'],['yellow'],1696.6265877000005,None,10.0,2.680468800000199,1696.6265877000005,None,1699.3766453999997,None,10.0,3.4646655999995346,1706.4265256999997,None,10.0,3.3482906999997795,1702.8931186999998,None,2.0,3.5651465000000826,<function functionImportanceA at 0x0000014200FA98C8>,<function functionImportanceC at 0x00000142020D7620>,<function functionImportanceB at 0x00000142020D76A8>,,,8.0,5.381283699999585,1.0,3.4478445000004285,2.0,3.4646655999995346,<function functiondiffC at 0x00000142020D7598>,<function functiondiffA at 0x0000014201716598>,<function functiondiffB at 0x00000142017161E0>,,,,,1670.3407916000006,1717.4763051,None,1714.0095053000005,None,1709.7764342,None,16,001,2022_Jul_19_1012,2leo,2021.2.3,60.00535247770309,
3,33,Plan the items to decorate your Christmas tree,Stimuli/33A1.jpg,Stimuli/33A2.jpg,Stimuli/33A3.jpg,Stimuli/33B1.jpg,Stimuli/33B2.jpg,Stimuli/33B3.jpg,Stimuli/33C1.jpg,Stimuli/33C2.jpg,Stimuli/33C3.jpg,,,,,0,24,24,33,,,,,,,,1722.3755382999998,None,1723.3759682999998,None,1729.3759064000005,None,"[-0.377, 0.138]","[0.066, -0.395]","[0.306, 0.255]","[-0.378, -0.136]","[0.304, -0.26]","[0.07, 0.393]","[-0.2, 0.346]","[-0.203, -0.347]","[0.399, -0.003]",,8.191985479998948,18.442260279998663,23.20876517999841,"[-0.35833333333333334, 0.05092592592592592, 0.35833333333333334]","[0.10277777777777777, 0.33796296296296297, -0.05]","[1, 1, 1]","[0, 0, 0]","[0, 0, 0]","[8.183993399999963, 18.4338144000003, 23.200107200000275]",0.0075874799986195285,23.207558579998476,['A1'],['B3'],['C3'],['yellow'],['salmon'],['blue'],1754.7081684000004,None,10.0,2.764057600000342,1754.7081684000004,None,1765.4248434,None,10.0,2.5468986000005316,1761.5415442000003,None,7.0,3.3485469999995985,1757.5583863000002,None,9.0,3.9979348999995636,<function functionImportanceC at 0x00000142020D7268>,<function functionImportanceB at 0x00000142020D7B70>,<function functionImportanceA at 0x00000142020D7A60>,,,6.0,4.39797980000003,1.0,4.131490100000519,0.0,2.5468986000005316,<function functiondiffA at 0x00000142020D77B8>,<function functiondiffB at 0x00000142020D7510>,<function functiondiffC at 0x00000142020D7D08>,,,,,1731.0385465,1771.6078601,None,1767.5745846,None,1776.0245272000002,None,16,001,2022_Jul_19_1012,2leo,2021.2.3,60.00535247770309,
3,17,Plan a day in Barcelona with a friend who is new to the city,Stimuli/17A1.jpg,Stimuli/17A2.jpg,Stimuli/17A3.jpg,Stimuli/17B1.jpg,Stimuli/17B2.jpg,Stimuli/17B3.jpg,Stimuli/17C1.jpg,Stimuli/17C2.jpg,Stimuli/17C3.jpg,,,,,0,25,25,17,,,,,,,,1779.1573010000002,None,1780.1575060000005,None,1786.1576999,None,"[0.399, -0.003]","[-0.203, -0.347]","[-0.2, 0.346]","[0.07, 0.393]","[0.304, -0.26]","[-0.378, -0.136]","[0.306, 0.255]","[0.066, -0.395]","[-0.377, 0.138]",,7.649421380000604,2.816383780000251,12.783166979999805,"[0.36203703703703705, -0.14907407407407408, 0.01574074074074074]","[-0.24722222222222223, -0.26851851851851855, -0.3314814814814815]","[1, 1, 1]","[0, 0, 0]","[0, 0, 0]","[2.8151528999997026, 7.64849520000007, 12.781735599999593]",0.0004112800006623729,12.781959280000592,['A2'],['B2'],['C2'],['yellow'],['blue'],['salmon'],1800.5737006999998,None,10.0,2.3634417999992365,1800.5737006999998,None,1810.0402677000002,None,9.0,4.181819500000529,1803.0071174000004,None,10.0,4.364449700000478,1807.3903528,None,9.0,2.5986016000006202,<function functionImportanceB at 0x00000142020D7400>,<function functionImportanceC at 0x00000142020D7EA0>,<function functionImportanceA at 0x00000142020D7D90>,,,0.0,2.2481840000000375,9.0,3.3643228999999337,7.0,4.181819500000529,<function functiondiffA at 0x00000142020D70D0>,<function functiondiffC at 0x00000142020D72F0>,<function functiondiffB at 0x00000142020D7950>,,,,,1787.3064683000002,1821.2564907000005,None,1814.1734065,None,1817.5401246000001,None,16,001,2022_Jul_19_1012,2leo,2021.2.3,60.00535247770309,
3,29,Plan a day in the mountains ,Stimuli/29A1.jpg,Stimuli/29A2.jpg,Stimuli/29A3.jpg,Stimuli/29B1.jpg,Stimuli/29B2.jpg,Stimuli/29B3.jpg,Stimuli/29C1.jpg,Stimuli/29C2.jpg,Stimuli/29C3.jpg,,,,,0,26,26,29,,,,,,,,1823.0227332000004,None,1824.0231130000002,None,1830.0230696999997,None,"[-0.378, -0.136]","[0.07, 0.393]","[0.304, -0.26]","[-0.377, 0.138]","[0.306, 0.255]","[0.066, -0.395]","[-0.2, 0.346]","[0.399, -0.003]","[-0.203, -0.347]",,9.177013599999555,5.993969799999832,20.86038489999919,"[-0.32037037037037036, 0.049074074074074076, -0.15185185185185185]","[0.075, 0.3861111111111111, -0.3527777777777778]","[1, 1, 1]","[0, 0, 0]","[0, 0, 0]","[5.987325899999632, 9.170543100000032, 20.85326720000012]",0.005963799999335606,20.859223599999495,['A2'],['B1'],['C3'],['salmon'],['blue'],['yellow'],1852.5222451999998,None,10.0,2.0968267999996897,1852.5222451999998,None,1854.7388773000002,None,10.0,5.347379799999544,1863.3550880000003,None,9.0,3.1317199999994045,1860.0553108000004,None,9.0,3.2981983999998192,<function functionImportanceA at 0x00000142020D7E18>,<function functionImportanceC at 0x00000142020D7378>,<function functionImportanceB at 0x00000142020D7BF8>,,,2.0,3.3643278999998074,1.0,3.7147095000000263,2.0,5.347379799999544,<function functiondiffB at 0x0000014201268620>,<function functiondiffA at 0x0000014200FA92F0>,<function functiondiffC at 0x0000014201268510>,,,,,1831.1833449000005,1866.4885995000004,None,1869.8885953999998,None,1873.6050823000005,None,16,001,2022_Jul_19_1012,2leo,2021.2.3,60.00535247770309,
3,7,Plan your Sunday breakfast ,Stimuli/7A1.jpg,Stimuli/7A2.jpg,Stimuli/7A3.jpg,Stimuli/7B1.jpg,Stimuli/7B2.jpg,Stimuli/7B3.jpg,Stimuli/7C1.jpg,Stimuli/7C2.jpg,Stimuli/7C3.jpg,,,,,0,27,27,7,,,,,,,,1876.9378809999998,None,1877.9383386,None,1883.9382854000005,None,"[0.306, 0.255]","[0.066, -0.395]","[-0.377, 0.138]","[0.399, -0.003]","[-0.203, -0.347]","[-0.2, 0.346]","[0.07, 0.393]","[0.304, -0.26]","[-0.378, -0.136]",,4.676682939991224,18.5766684399905,9.943378239991034,"[-0.31296296296296294, 0.06759259259259259, -0.14166666666666666]","[0.05648148148148148, 0.30925925925925923, 0.27870370370370373]","[1, 1, 1]","[0, 0, 0]","[0, 0, 0]","[4.671246199999587, 9.93754489999992, 18.57087709999996]",0.004796639990672702,18.575631739990968,['A3'],['B3'],['C1'],['yellow'],['salmon'],['blue'],1908.9039251000004,None,10.0,2.63021260000005,1908.9039251000004,None,1918.2894263999997,None,10.0,4.915184699999372,1923.3701062999999,None,9.0,5.231743700000152,1912.7708103000004,None,9.0,4.9476607999995394,<function functionImportanceC at 0x00000142025BF048>,<function functionImportanceA at 0x0000014201268488>,<function functionImportanceB at 0x00000142020D7C80>,,,2.0,4.681235500000184,0.0,3.081424599999991,1.0,4.915184699999372,<function functiondiffC at 0x00000142012689D8>,<function functiondiffB at 0x0000014201268EA0>,<function functiondiffA at 0x00000142020D79D8>,,,,,1889.8686872999997,1931.3200604000003,None,1935.8366728,None,1927.0703245000004,None,16,001,2022_Jul_19_1012,2leo,2021.2.3,60.00535247770309,
3,11,Plan a hike in nature on a free day,Stimuli/11A1.jpg,Stimuli/11A2.jpg,Stimuli/11A3.jpg,Stimuli/11B1.jpg,Stimuli/11B2.jpg,Stimuli/11B3.jpg,Stimuli/11C1.jpg,Stimuli/11C2.jpg,Stimuli/11C3.jpg,,,,,0,28,28,11,,,,,,,,1937.9528533000002,None,1938.9532076000005,None,1944.9532529999997,None,"[-0.377, 0.138]","[0.306, 0.255]","[0.066, -0.395]","[-0.378, -0.136]","[0.07, 0.393]","[0.304, -0.26]","[-0.2, 0.346]","[0.399, -0.003]","[-0.203, -0.347]",,18.52756242000123,4.3114325200003805,13.028095220000978,"[0.08611111111111111, 0.33796296296296297, 0.08703703703703704]","[0.3277777777777778, 0.011111111111111112, -0.4064814814814815]","[1, 1, 1]","[0, 0, 0]","[0, 0, 0]","[4.304127700000208, 13.02056309999989, 18.52043820000017]",0.006502220000584202,18.52689202000056,['A3'],['B2'],['C2'],['yellow'],['blue'],['salmon'],1965.1355480000002,None,10.0,2.4467547000003833,1965.1355480000002,None,1970.7522535999997,None,10.0,2.0985745999996652,1972.8856673,None,8.0,2.814698000000135,1967.6857946999999,None,9.0,3.0309617000002618,<function functionImportanceC at 0x00000142025BFAE8>,<function functionImportanceA at 0x00000142025BFBF8>,<function functionImportanceB at 0x00000142025BF840>,,,2.0,3.2148059000001012,8.0,4.0141648999997415,2.0,2.0985745999996652,<function functiondiffA at 0x00000142020D7730>,<function functiondiffC at 0x00000142025BF400>,<function functiondiffB at 0x00000142020D7488>,,,,,1946.131359,1983.2019811,None,1975.6189522000004,None,1979.6521404000005,None,16,001,2022_Jul_19_1012,2leo,2021.2.3,60.00535247770309,
3,6,Plan your wedding,Stimuli/6A1.jpg,Stimuli/6A2.jpg,Stimuli/6A3.jpg,Stimuli/6B1.jpg,Stimuli/6B2.jpg,Stimuli/6B3.jpg,Stimuli/6C1.jpg,Stimuli/6C2.jpg,Stimuli/6C3.jpg,,,,,0,29,29,6,,,,,,,,1985.9347474000006,None,1986.9350867000003,None,1992.9350587999998,None,"[-0.2, 0.346]","[-0.203, -0.347]","[0.399, -0.003]","[-0.377, 0.138]","[0.066, -0.395]","[0.306, 0.255]","[-0.378, -0.136]","[0.304, -0.26]","[0.07, 0.393]",,31.513152639992768,17.779959839993353,10.514059539992559,"[0.1175925925925926, -0.3111111111111111, 0.36018518518518516]","[0.3814814814814815, 0.1175925925925926, 0.03796296296296296]","[1, 1, 1]","[0, 0, 0]","[0, 0, 0]","[10.502396300000328, 17.768690300000344, 31.5019941999999]",0.01056373999290372,31.512263339993297,['A3'],['B1'],['C3'],['yellow'],['blue'],['salmon'],2029.9837673000002,None,7.0,3.379882700000053,2029.9837673000002,None,2045.0836458000003,None,10.0,3.6984116999992693,2035.0505951000005,None,10.0,4.414313999999649,2039.0337981000002,None,9.0,6.0649466000004395,<function functionImportanceB at 0x00000142025BF158>,<function functionImportanceC at 0x00000142025BF8C8>,<function functionImportanceA at 0x00000142025BF598>,,,6.0,4.597870900000089,10.0,3.181229799999528,2.0,3.6984116999992693,<function functiondiffC at 0x00000142025BF1E0>,<function functiondiffB at 0x00000142025BFD90>,<function functiondiffA at 0x00000142025BFC80>,,,,,1998.0170260000004,2052.516683,None,2057.0499125000006,None,2048.016907,None,16,001,2022_Jul_19_1012,2leo,2021.2.3,60.00535247770309,
3,32,Plan how you want to relax after a workday,Stimuli/32A1.jpg,Stimuli/32A2.jpg,Stimuli/32A3.jpg,Stimuli/32B1.jpg,Stimuli/32B2.jpg,Stimuli/32B3.jpg,Stimuli/32C1.jpg,Stimuli/32C2.jpg,Stimuli/32C3.jpg,,,,,0,30,30,32,,,,,,,,2093.1155883,None,2094.1156508000004,None,2100.115438,None,"[-0.2, 0.346]","[0.399, -0.003]","[-0.203, -0.347]","[-0.377, 0.138]","[0.306, 0.255]","[0.066, -0.395]","[-0.378, -0.136]","[0.07, 0.393]","[0.304, -0.26]",,10.500850799996442,7.067680399996789,18.06798429999617,"[-0.35648148148148145, 0.34074074074074073, 0.25277777777777777]","[0.07222222222222222, -0.012962962962962963, -0.24537037037037038]","[1, 1, 1]","[0, 0, 0]","[0, 0, 0]","[7.056223699999464, 10.489591499999733, 18.056180099999438]",0.010728599996582489,18.066635699996368,['A2'],['B1'],['C3'],['blue'],['salmon'],['yellow'],2121.6645212000003,None,10.0,3.0139291999994384,2121.6645212000003,None,2137.0330267,None,10.0,5.748427499999707,2125.5647029,None,9.0,7.297773500000403,2132.0978723999997,None,2.0,3.814863399999922,<function functionImportanceB at 0x00000142025BFE18>,<function functionImportanceC at 0x00000142025BF730>,<function functionImportanceA at 0x00000142025BFA60>,,,2.0,4.564155799999753,2.0,5.164652299999943,6.0,5.748427499999707,<function functiondiffB at 0x00000142025BFD08>,<function functiondiffA at 0x00000142025BF0D0>,<function functiondiffC at 0x00000142025BF488>,,,,,2103.1403408000006,2141.8142765000002,None,2146.5521003000003,None,2151.3805588000005,None,16,001,2022_Jul_19_1012,2leo,2021.2.3,60.00535247770309,
3,42,Plan how to draw a painting ,Stimuli/42A1.jpg,Stimuli/42A2.jpg,Stimuli/42A3.jpg,Stimuli/42B1.jpg,Stimuli/42B2.jpg,Stimuli/42B3.jpg,Stimuli/42C1.jpg,Stimuli/42C2.jpg,Stimuli/42C3.jpg,,,,,0,31,31,42,,,,,,,,2156.696801,None,2157.6972151,None,2163.6970422000004,None,"[-0.378, -0.136]","[0.07, 0.393]","[0.304, -0.26]","[-0.2, 0.346]","[0.399, -0.003]","[-0.203, -0.347]","[-0.377, 0.138]","[0.306, 0.255]","[0.066, -0.395]",,21.350732839998273,11.167801839998901,17.10114983999847,"[-0.225, -0.21203703703703702, 0.07037037037037037, 0.3527777777777778]","[0.2518518518518518, 0.287962962962963, -0.3768518518518518, -0.2175925925925926]","[1, 1, 1, 1]","[0, 0, 0, 0]","[0, 0, 0, 0]","[10.665108999999575, 11.165272499999446, 17.098149499999636, 21.348310599999422]",0.0018247399984829826,21.34981143999903,['A3'],['B1'],['C3'],['salmon'],['yellow'],['blue'],2186.8128967000002,None,9.0,2.3301318999992873,2186.8128967000002,None,2189.4128840000003,None,10.0,4.747491099999934,2197.3959826,None,7.0,3.5656990999996196,2193.9626850000004,None,8.0,3.3820268999998007,<function functionImportanceA at 0x00000142025BFEA0>,<function functionImportanceC at 0x0000014200443EA0>,<function functionImportanceB at 0x0000014200FA99D8>,,,6.0,3.1312835999997333,1.0,2.647866100000101,2.0,4.747491099999934,<function functiondiffC at 0x00000142025BF510>,<function functiondiffA at 0x00000142025BFF28>,<function functiondiffB at 0x00000142025BF2F0>,,,,,2164.9808093,2207.6791119,None,2205.045621,None,2200.9291766000006,None,16,001,2022_Jul_19_1012,2leo,2021.2.3,60.00535247770309,
3,31,Plan your order at a restaurant    ,Stimuli/31A1.jpg,Stimuli/31A2.jpg,Stimuli/31A3.jpg,Stimuli/31B1.jpg,Stimuli/31B2.jpg,Stimuli/31B3.jpg,Stimuli/31C1.jpg,Stimuli/31C2.jpg,Stimuli/31C3.jpg,,,,,0,32,32,31,,,,,,,,2210.3291297000005,None,2211.3287351,None,2217.3287947,None,"[0.306, 0.255]","[-0.377, 0.138]","[0.066, -0.395]","[0.07, 0.393]","[-0.378, -0.136]","[0.304, -0.26]","[0.399, -0.003]","[-0.2, 0.346]","[-0.203, -0.347]",,16.481477059997815,13.031807959997423,7.115389159997903,"[-0.19074074074074074, 0.11203703703703703, 0.26944444444444443]","[-0.3398148148148148, 0.3194444444444444, 0.22870370370370371]","[1, 1, 1]","[0, 0, 0]","[0, 0, 0]","[7.107283500000449, 13.02415210000072, 16.474091700000827]",0.0069795599974895595,16.48090155999762,['A1'],['B1'],['C3'],['yellow'],['blue'],['salmon'],2236.8447502999998,None,10.0,3.213775899999746,2236.8447502999998,None,2248.7611812000005,None,0.0,4.398124899999857,2251.7944480000006,None,8.0,2.6650994999999966,2240.1614093,None,10.0,7.230999200000042,<function functionImportanceC at 0x0000014202AA1048>,<function functionImportanceA at 0x0000014200FA9268>,<function functionImportanceB at 0x00000142017167B8>,,,6.0,4.497895399999834,8.0,5.79754690000027,1.0,4.398124899999857,<function functiondiffC at 0x00000142025BF6A8>,<function functiondiffB at 0x00000142025BFB70>,<function functiondiffA at 0x00000142020D71E0>,,,,,2219.9036714000003,2258.4776081,None,2263.3105789,None,2254.4445109999997,None,16,001,2022_Jul_19_1012,2leo,2021.2.3,60.00535247770309,
3,41,Plan how you want to have dinner tonight ,Stimuli/41A1.jpg,Stimuli/41A2.jpg,Stimuli/41A3.jpg,Stimuli/41B1.jpg,Stimuli/41B2.jpg,Stimuli/41B3.jpg,Stimuli/41C1.jpg,Stimuli/41C2.jpg,Stimuli/41C3.jpg,,,,,0,33,33,41,,,,,,,,2268.3102899000005,None,2269.3105068000004,None,2275.3105932999997,None,"[-0.378, -0.136]","[0.304, -0.26]","[0.07, 0.393]","[-0.377, 0.138]","[0.066, -0.395]","[0.306, 0.255]","[-0.2, 0.346]","[-0.203, -0.347]","[0.399, -0.003]",,17.347172499999033,14.197195199999442,7.648059799998919,"[0.4564814814814815, -0.3296296296296296, -0.39537037037037037, 0.023148148148148147]","[0.022222222222222223, 0.044444444444444446, 0.06944444444444445, 0.39444444444444443]","[1, 1, 1, 1]","[0, 0, 0, 0]","[0, 0, 0, 0]","[7.64674340000056, 11.213031700000101, 14.196257600000536, 17.3463584000001]",0.00021379999907367164,17.346388599999045,['A3'],['B1'],['C3'],['yellow'],['salmon'],['blue'],2294.4763924,None,10.0,3.24706470000001,2294.4763924,None,2302.9430177000004,None,10.0,2.748653700000432,2305.659461,None,10.0,2.7152500000001965,2297.9598267,None,8.0,5.081406700000116,<function functionImportanceC at 0x0000014202AA1158>,<function functionImportanceA at 0x0000014201716EA0>,<function functionImportanceB at 0x000001425162A510>,,,2.0,3.181083999999828,2.0,2.8980156999996325,-0.0,2.748653700000432,<function functiondiffB at 0x00000142020D78C8>,<function functiondiffC at 0x0000014202AA1620>,<function functiondiffA at 0x00000142025BF378>,,,,,2276.6464157,2308.3594411000004,None,2316.0760689,None,2311.5759995999997,None,16,001,2022_Jul_19_1012,2leo,2021.2.3,60.00535247770309,
3,1,Plan how to study for an exam,Stimuli/1A1.jpg,Stimuli/1A2.jpg,Stimuli/1A3.jpg,Stimuli/1B1.jpg,Stimuli/1B2.jpg,Stimuli/1B3.jpg,Stimuli/1C1.jpg,Stimuli/1C2.jpg,Stimuli/1C3.jpg,,,,,0,34,34,1,,,,,,,,2318.4924730000002,None,2319.4925179,None,2325.4924186,None,"[-0.2, 0.346]","[0.399, -0.003]","[-0.203, -0.347]","[-0.378, -0.136]","[0.07, 0.393]","[0.304, -0.26]","[-0.377, 0.138]","[0.306, 0.255]","[0.066, -0.395]",,13.237901820000843,9.005118520000906,4.005249620000541,"[-0.3611111111111111, 0.37037037037037035, 0.4166666666666667]","[0.09907407407407408, -0.25462962962962965, -0.016666666666666666]","[1, 1, 1]","[0, 0, 0]","[0, 0, 0]","[3.9931517000004533, 8.99311730000045, 13.226233100000172]",0.011154920000990387,13.23719662000076,['A2'],['B3'],['C1'],['blue'],['yellow'],['salmon'],2340.2918615,None,10.0,2.3801211999998486,2340.2918615,None,2345.9085714000003,None,10.0,3.1314965999999913,2342.7419679000004,None,10.0,3.1480334000007133,2349.0250879000005,None,10.0,6.598245700000007,<function functionImportanceB at 0x0000014202AA1D90>,<function functionImportanceA at 0x0000014201268D90>,<function functionImportanceC at 0x0000014202AA1840>,,,2.0,2.7314093000004505,0.0,2.997918099999879,0.0,3.1314965999999913,<function functiondiffA at 0x0000014202AA17B8>,<function functiondiffB at 0x0000014202AA1950>,<function functiondiffC at 0x0000014202AA1A60>,,,,,2326.5799746000002,2358.6581585000004,None,2355.6416439000004,None,2361.3913965,None,16,001,2022_Jul_19_1012,2leo,2021.2.3,60.00535247770309,
3,43,Plan your dream house,Stimuli/43A1.jpg,Stimuli/43A2.jpg,Stimuli/43A3.jpg,Stimuli/43B1.jpg,Stimuli/43B2.jpg,Stimuli/43B3.jpg,Stimuli/43C1.jpg,Stimuli/43C2.jpg,Stimuli/43C3.jpg,,,,,0,35,35,43,,,,,,,,2363.1076232000005,None,2364.1079638,None,2370.1079128,None,"[0.399, -0.003]","[-0.2, 0.346]","[-0.203, -0.347]","[0.306, 0.255]","[-0.377, 0.138]","[0.066, -0.395]","[0.07, 0.393]","[-0.378, -0.136]","[0.304, -0.26]",,21.34009506000075,15.741812560000653,13.1577719600009,"[0.375, -0.32037037037037036, -0.19444444444444445]","[-0.2518518518518518, 0.05925925925925926, 0.3712962962962963]","[1, 1, 1]","[0, 0, 0]","[0, 0, 0]","[13.152419099999861, 15.736796199999844, 21.335362599999826]",0.004229960000884603,21.339404360000117,['A2'],['B2'],['C3'],['blue'],['yellow'],['salmon'],2393.0569864999998,None,10.0,2.4633053999996264,2393.0569864999998,None,2401.1568636,None,8.0,4.381861999999273,2395.5736879000006,None,10.0,2.780937799999265,2398.3737865000003,None,10.0,2.7316921999999977,<function functionImportanceB at 0x0000014202AA12F0>,<function functionImportanceC at 0x0000014202AA1AE8>,<function functionImportanceA at 0x0000014202AA1400>,,,1.0,3.697994299999664,8.0,4.4310492999993585,4.0,4.381861999999273,<function functiondiffA at 0x0000014202AA1598>,<function functiondiffC at 0x0000014202AA10D0>,<function functiondiffB at 0x0000014202AA1F28>,,,,,2371.2361519000006,2415.7229296000005,None,2405.5068077000005,None,2409.9568523,None,16,001,2022_Jul_19_1012,2leo,2021.2.3,60.00535247770309,
3,13,Plan a romantic date this weekend,Stimuli/13A1.jpg,Stimuli/13A2.jpg,Stimuli/13A3.jpg,Stimuli/13B1.jpg,Stimuli/13B2.jpg,Stimuli/13B3.jpg,Stimuli/13C1.jpg,Stimuli/13C2.jpg,Stimuli/13C3.jpg,,,,,0,36,36,13,,,,,,,,2418.9403044,None,2419.9395823000004,None,2425.9397563,None,"[-0.203, -0.347]","[0.399, -0.003]","[-0.2, 0.346]","[0.304, -0.26]","[0.07, 0.393]","[-0.378, -0.136]","[0.066, -0.395]","[0.306, 0.255]","[-0.377, 0.138]",,13.34059803999935,30.272377839999535,17.67319323999891,"[-0.18981481481481483, -0.003703703703703704, 0.32222222222222224]","[0.40370370370370373, -0.3194444444444444, -0.2111111111111111]","[1, 1, 1]","[0, 0, 0]","[0, 0, 0]","[13.327694299999166, 17.659744099999443, 30.259343999999146]",0.012315939999098191,30.271385439998994,['A3'],['B1'],['C1'],['salmon'],['yellow'],['blue'],2457.8719087,None,9.0,2.463215599999785,2457.8719087,None,2460.4219981000006,None,0.0,3.114693699999407,2463.5884160000005,None,3.0,4.382028199999695,2467.9383669,None,9.0,3.633341699999619,<function functionImportanceA at 0x00000142025BF950>,<function functionImportanceB at 0x0000014202AA1510>,<function functionImportanceC at 0x0000014202AA18C8>,,,3.0,4.381161100000099,2.0,5.080357799999547,-0.0,3.114693699999407,<function functiondiffA at 0x00000142025BF7B8>,<function functiondiffB at 0x0000014202AA1EA0>,<function functiondiffC at 0x0000014202AA1E18>,,,,,2427.1279462,2476.6713976,None,2471.555101,None,2481.0547189999997,None,16,001,2022_Jul_19_1012,2leo,2021.2.3,60.00535247770309,
3,14,Plan your own Pizza for dinner,Stimuli/14A1.jpg,Stimuli/14A2.jpg,Stimuli/14A3.jpg,Stimuli/14B1.jpg,Stimuli/14B2.jpg,Stimuli/14B3.jpg,Stimuli/14C1.jpg,Stimuli/14C2.jpg,Stimuli/14C3.jpg,,,,,0,37,37,14,,,,,,,,2484.6215363,None,2485.6211347999997,None,2491.6210653,None,"[-0.377, 0.138]","[0.066, -0.395]","[0.306, 0.255]","[-0.2, 0.346]","[-0.203, -0.347]","[0.399, -0.003]","[-0.378, -0.136]","[0.304, -0.26]","[0.07, 0.393]",,12.707725399998708,5.257979199998772,8.241633499998898,"[-0.16018518518518518, 0.05277777777777778, 0.05185185185185185]","[0.2611111111111111, 0.4064814814814815, -0.33425925925925926]","[1, 1, 1]","[0, 0, 0]","[0, 0, 0]","[5.2443119000008664, 8.227554600000076, 12.694248500000867]",0.012981799998669885,12.707018799998878,['A2'],['B1'],['C3'],['blue'],['yellow'],['salmon'],2505.9539256999997,None,10.0,2.113958800000546,2505.9539256999997,None,2514.0705383000004,None,8.0,2.398443099999895,2508.1872325000004,None,10.0,3.264856100000543,2511.4038339,None,9.0,2.615459500000725,<function functionImportanceB at 0x00000142025BF9D8>,<function functionImportanceC at 0x00000142025BF620>,<function functionImportanceA at 0x00000142020D7F28>,,,-0.0,3.414461200000005,2.0,2.7646365000000515,0.0,2.398443099999895,<function functiondiffB at 0x0000014202AA1268>,<function functiondiffC at 0x0000014202FA8378>,<function functiondiffA at 0x0000014202AA1C80>,,,,,2492.7734777000005,2516.4537688,None,2523.9035386000005,None,2519.8701991,None,16,001,2022_Jul_19_1012,2leo,2021.2.3,60.00535247770309,
3,37,Plan your cleaning routine ,Stimuli/37A1.jpg,Stimuli/37A2.jpg,Stimuli/37A3.jpg,Stimuli/37B1.jpg,Stimuli/37B2.jpg,Stimuli/37B3.jpg,Stimuli/37C1.jpg,Stimuli/37C2.jpg,Stimuli/37C3.jpg,,,,,0,38,38,37,,,,,,,,2526.1874528,None,2527.1866040000004,None,2533.1866387,None,"[-0.378, -0.136]","[0.07, 0.393]","[0.304, -0.26]","[-0.2, 0.346]","[0.399, -0.003]","[-0.203, -0.347]","[-0.377, 0.138]","[0.306, 0.255]","[0.066, -0.395]",,14.583901420000984,6.801325820000784,10.751395420000335,"[0.42962962962962964, 0.28425925925925927, 0.09814814814814815]","[0.013888888888888888, 0.2, 0.38796296296296295]","[1, 1, 1]","[0, 0, 0]","[0, 0, 0]","[6.799730799999452, 10.74954660000003, 14.582528699999784]",0.0008267200009868247,14.583335520000219,['A2'],['B2'],['C2'],['yellow'],['blue'],['salmon'],2549.3525091,None,10.0,2.3133766999999352,2549.3525091,None,2551.7361048000002,None,10.0,3.5644565999991755,2555.3024629,None,9.0,3.281978600000002,2558.6025201,None,10.0,4.09871910000038,<function functionImportanceA at 0x00000142025BF268>,<function functionImportanceB at 0x0000014202FA82F0>,<function functionImportanceC at 0x0000014202FA8598>,,,1.0,3.5311571000002004,0.0,2.4477620000006937,0.0,3.5644565999991755,<function functiondiffA at 0x0000014202AA1D08>,<function functiondiffB at 0x0000014202AA1730>,<function functiondiffC at 0x0000014202AA19D8>,,,,,2534.2845188,2565.1689639000006,None,2562.7022359000002,None,2568.7188351000004,None,16,001,2022_Jul_19_1012,2leo,2021.2.3,60.00535247770309,
3,9,Plan a picnic with friends,Stimuli/9A1.jpg,Stimuli/9A2.jpg,Stimuli/9A3.jpg,Stimuli/9B1.jpg,Stimuli/9B2.jpg,Stimuli/9B3.jpg,Stimuli/9C1.jpg,Stimuli/9C2.jpg,Stimuli/9C3.jpg,,,,,0,39,39,9,,,,,,,,2571.6362768999998,None,2572.6353381,None,2578.6354088,None,"[0.399, -0.003]","[-0.203, -0.347]","[-0.2, 0.346]","[0.07, 0.393]","[0.304, -0.26]","[-0.378, -0.136]","[0.306, 0.255]","[0.066, -0.395]","[-0.377, 0.138]",,7.051935339992269,20.93519283999194,18.285404839992225,"[0.37407407407407406, 0.09907407407407408, 0.37037037037037035]","[-0.03333333333333333, -0.36203703703703705, -0.2675925925925926]","[1, 1, 1]","[0, 0, 0]","[0, 0, 0]","[7.045253399999638, 18.278122300000177, 20.92813070000011]",0.006252739992305578,20.93434673999218,['A1'],['B2'],['C2'],['salmon'],['yellow'],['blue'],2605.3676322,None,10.0,2.247214100000747,2605.3676322,None,2609.1677221,None,10.0,3.730715799999416,2612.7009611000003,None,8.0,4.4650627000000895,2617.3508878000002,None,2.0,4.931581200000437,<function functionImportanceA at 0x0000014202FA89D8>,<function functionImportanceB at 0x0000014202FA8AE8>,<function functionImportanceC at 0x0000014202FA8400>,,,3.0,4.4141359999994165,0.0,2.6480184000001827,8.0,3.730715799999416,<function functiondiffB at 0x0000014202AA16A8>,<function functiondiffA at 0x0000014202AA1378>,<function functiondiffC at 0x0000014202AA1488>,,,,,2583.9752131000005,2621.2174697,None,2625.7502804000005,None,2628.3838633000005,None,16,001,2022_Jul_19_1012,2leo,2021.2.3,60.00535247770309,
3,18,Plan your Saturday night ,Stimuli/18A1.jpg,Stimuli/18A2.jpg,Stimuli/18A3.jpg,Stimuli/18B1.jpg,Stimuli/18B2.jpg,Stimuli/18B3.jpg,Stimuli/18C1.jpg,Stimuli/18C2.jpg,Stimuli/18C3.jpg,,,,,0,40,40,18,,,,,,,,2631.4018232,None,2632.4169021,None,2638.4170354,None,"[0.066, -0.395]","[0.306, 0.255]","[-0.377, 0.138]","[0.304, -0.26]","[0.07, 0.393]","[-0.378, -0.136]","[-0.203, -0.347]","[0.399, -0.003]","[-0.2, 0.346]",,20.024486859999342,4.258786360000158,12.592067560000032,"[0.28703703703703703, 0.3712962962962963, -0.4888888888888889, -0.4564814814814815]","[-0.2101851851851852, -0.053703703703703705, 0.13703703703703704, 0.13703703703703704]","[1, 1, 1, 1]","[0, 0, 0, 0]","[0, 0, 0, 0]","[4.253291199999694, 12.586197499999798, 19.436545300000034, 20.019091000000117]",0.00479936000010639,20.02388155999961,['A3'],['B1'],['C2'],['yellow'],['blue'],['salmon'],2660.0493464,None,10.0,2.564066100000673,2660.0493464,None,2665.6993929,None,10.0,4.848595100000239,2670.5326181,None,10.0,1.9482399999997142,2662.7162249000003,None,1.0,2.9645479000000705,<function functionImportanceC at 0x0000014202FA88C8>,<function functionImportanceA at 0x0000014202FA8158>,<function functionImportanceB at 0x0000014202FA8D90>,,,3.0,5.197709799999757,8.0,4.531368699999803,1.0,4.848595100000239,<function functiondiffA at 0x0000014202FA8510>,<function functiondiffB at 0x0000014202FA8950>,<function functiondiffC at 0x0000014202FA8EA0>,,,,,2639.5468947,2676.9992504,None,2672.4658369999997,None,2682.2321659,None,16,001,2022_Jul_19_1012,2leo,2021.2.3,60.00535247770309,
3,23,Plan a city trip,Stimuli/23A1.jpg,Stimuli/23A2.jpg,Stimuli/23A3.jpg,Stimuli/23B1.jpg,Stimuli/23B2.jpg,Stimuli/23B3.jpg,Stimuli/23C1.jpg,Stimuli/23C2.jpg,Stimuli/23C3.jpg,,,,,0,41,41,23,,,,,,,,2684.6501628000005,None,2685.665602,None,2691.6654727000005,None,"[0.304, -0.26]","[0.07, 0.393]","[-0.378, -0.136]","[0.066, -0.395]","[0.306, 0.255]","[-0.377, 0.138]","[-0.203, -0.347]","[0.399, -0.003]","[-0.2, 0.346]",,10.405650279999463,21.622460079999655,15.672993979998864,"[0.3148148148148148, 0.3333333333333333, -0.4861111111111111, -0.38796296296296295]","[-0.26666666666666666, -0.005555555555555556, 0.08425925925925926, 0.11944444444444445]","[1, 1, 1, 1]","[0, 0, 0, 0]","[0, 0, 0, 0]","[10.393378599999778, 15.660017700000026, 21.226434700000027, 21.609769900000174]",0.01183067999954801,21.62127687999964,['A1'],['B3'],['C2'],['yellow'],['salmon'],['blue'],2714.8979893000005,None,8.0,3.66342799999984,2714.8979893000005,None,2725.3812564,None,9.0,3.9482539999999062,2718.6314627,None,10.0,3.2479066999994757,2721.9313653,None,10.0,3.4817341999996643,<function functionImportanceB at 0x0000014202FA8BF8>,<function functionImportanceC at 0x0000014202AA1BF8>,<function functionImportanceA at 0x0000014202FA8048>,,,9.0,3.314769399999932,3.0,4.681151699999646,1.0,3.9482539999999062,<function functiondiffC at 0x0000014202FA8B70>,<function functiondiffB at 0x0000014202FA86A8>,<function functiondiffA at 0x0000014202FA8F28>,,,,,2692.8025638,2732.4978106999997,None,2735.8306490000004,None,2729.3311335999997,None,16,001,2022_Jul_19_1012,2leo,2021.2.3,60.00535247770309,
3,30,Plan your sport work out for tomorrow,Stimuli/30A1.jpg,Stimuli/30A2.jpg,Stimuli/30A3.jpg,Stimuli/30B1.jpg,Stimuli/30B2.jpg,Stimuli/30B3.jpg,Stimuli/30C1.jpg,Stimuli/30C2.jpg,Stimuli/30C3.jpg,,,,,0,42,42,30,,,,,,,,2740.0320527000003,None,2741.0305489,None,2747.0305612,None,"[0.304, -0.26]","[0.07, 0.393]","[-0.378, -0.136]","[0.066, -0.395]","[0.306, 0.255]","[-0.377, 0.138]","[-0.203, -0.347]","[0.399, -0.003]","[-0.2, 0.346]",,13.661785799999052,9.461995099999513,20.212266599999566,"[0.10277777777777777, -0.3212962962962963, -0.1527777777777778]","[-0.387037037037037, -0.11203703703703703, 0.3861111111111111]","[1, 1, 1]","[0, 0, 0]","[0, 0, 0]","[9.454565900000489, 13.65445340000042, 20.20443350000005]",0.006711499999255466,20.21084239999891,['A3'],['B1'],['C3'],['blue'],['salmon'],['yellow'],2768.8798183,None,9.0,2.4466301000002204,2768.8798183,None,2776.2296183,None,10.0,2.7485996999994313,2779.0463072000002,None,7.0,3.314848300000449,2771.3964246000005,None,2.0,4.814491299999645,<function functionImportanceC at 0x0000014203396598>,<function functionImportanceA at 0x0000014202FA87B8>,<function functionImportanceB at 0x0000014202FA8620>,,,2.0,4.164541400000417,8.0,3.931197400000201,3.0,2.7485996999994313,<function functiondiffC at 0x00000142033961E0>,<function functiondiffB at 0x0000014202FA8D08>,<function functiondiffA at 0x0000014202FA80D0>,,,,,2748.1909796,2787.6295529,None,2791.7959653,None,2782.2962354,None,16,001,2022_Jul_19_1012,2leo,2021.2.3,60.00535247770309,
3,21,Plan your sandwich for lunch,Stimuli/21A1.jpg,Stimuli/21A2.jpg,Stimuli/21A3.jpg,Stimuli/21B1.jpg,Stimuli/21B2.jpg,Stimuli/21B3.jpg,Stimuli/21C1.jpg,Stimuli/21C2.jpg,Stimuli/21C3.jpg,,,,,0,43,43,21,,,,,,,,2795.2474543,None,2796.2625306,None,2802.2625125000004,None,"[-0.2, 0.346]","[-0.203, -0.347]","[0.399, -0.003]","[-0.378, -0.136]","[0.304, -0.26]","[0.07, 0.393]","[-0.377, 0.138]","[0.066, -0.395]","[0.306, 0.255]",,5.256967560000703,13.506923960000677,22.890185060000476,"[-0.2101851851851852, 0.28888888888888886, 0.05648148148148148]","[-0.30462962962962964, -0.22685185185185186, -0.37962962962962965]","[1, 1, 1]","[0, 0, 0]","[0, 0, 0]","[5.24413099999947, 13.493852599999627, 22.876844499999606]",0.012315460000536405,22.888977460000206,['A2'],['B2'],['C2'],['blue'],['yellow'],['salmon'],2826.7448504000004,None,8.0,2.4304228000000876,2826.7448504000004,None,2833.3780751000004,None,10.0,2.081850499999746,2835.4614303999997,None,7.0,2.4317181999995228,2829.2447844,None,10.0,4.114632800000436,<function functionImportanceC at 0x0000014203396730>,<function functionImportanceA at 0x0000014202FA8840>,<function functionImportanceB at 0x0000014203396840>,,,-0.0,2.6816305000002103,0.0,2.464185499999985,8.0,2.081850499999746,<function functiondiffC at 0x0000014203396950>,<function functiondiffA at 0x0000014202AA1B70>,<function functiondiffB at 0x0000014202AA11E0>,,,,,2803.3830479999997,2843.5111797,None,2841.0111297000003,None,2837.8780677000004,None,16,001,2022_Jul_19_1012,2leo,2021.2.3,60.00535247770309,
3,12,Plan the ingredients to mix yourself a cocktail,Stimuli/12A1.jpg,Stimuli/12A2.jpg,Stimuli/12A3.jpg,Stimuli/12B1.jpg,Stimuli/12B2.jpg,Stimuli/12B3.jpg,Stimuli/12C1.jpg,Stimuli/12C2.jpg,Stimuli/12C3.jpg,,,,,0,44,44,12,,,,,,,,2845.7130562,None,2846.727506,None,2852.7276251000003,None,"[-0.378, -0.136]","[0.07, 0.393]","[0.304, -0.26]","[-0.377, 0.138]","[0.306, 0.255]","[0.066, -0.395]","[-0.2, 0.346]","[0.399, -0.003]","[-0.203, -0.347]",,31.42065915999956,24.104352959999233,9.821904559998984,"[-0.14074074074074075, 0.31851851851851853, 0.027777777777777776]","[-0.3212962962962963, 0.21944444444444444, 0.40185185185185185]","[1, 1, 1]","[0, 0, 0]","[0, 0, 0]","[9.817802499999743, 24.10059679999995, 31.417155599999205]",0.002985259999150003,31.420025159999568,['A2'],['B2'],['C3'],['yellow'],['salmon'],['blue'],2885.7597745000003,None,10.0,2.6637040999994497,2885.7597745000003,None,2892.4098171000005,None,9.0,2.4984656000006,2888.4932823,None,9.0,3.8809815000004164,2894.9098523000002,None,10.0,2.8485321999996813,<function functionImportanceB at 0x0000014203396048>,<function functionImportanceA at 0x0000014203396F28>,<function functionImportanceC at 0x0000014203396488>,,,-0.0,2.9643066999997245,9.0,3.214484000000084,1.0,2.4984656000006,<function functiondiffA at 0x0000014203396620>,<function functiondiffB at 0x0000014203396BF8>,<function functiondiffC at 0x0000014203396D08>,,,,,2853.8563286,2900.9761843000006,None,2897.7430274,None,2903.959428,None,16,001,2022_Jul_19_1012,2leo,2021.2.3,60.00535247770309,
