Condition,N_Scenario,written_scenario,ImageA1,ImageA2,ImageA3,ImageB1,ImageB2,ImageB3,ImageC1,ImageC2,ImageC3,trials_2.thisRepN,trials_2.thisTrialN,trials_2.thisN,trials_2.thisIndex,trial.thisRepN,trial.thisTrialN,trial.thisN,trial.thisIndex,button_2.started,button_2.stopped,button_2.numClicks,button_2.timesOn,button_2.timesOff,text.started,text.stopped,fixationcross1_started,fixationcross1_stopped,Scenario_started,Scenario_stopped,fixationcross2_started,fixationcross2_stopped,A1pos,A2pos,A3pos,B1pos,B2pos,B3pos,C1pos,C2pos,C3pos,﻿Imagesdecision_started,decisiontimeA,decisiontimeB,decisiontimeC,mouse_x,mouse_y,mouse_leftButton,mouse_midButton,mouse_rightButton,mouse_time,mouse_started,mouse_stopped,clicked_optionA,clicked_optionB,clicked_optionC,colour_category_A,colour_category_B,colour_category_C,question_confidence_started,question_confidence_stopped,slider_confidence_response,slider_confidence_rt,slider_confidence_started,slider_confidence_stopped,question_valueC_started,question_valueC_stopped,slider_valueC_response,slider_valueC_rt,question_valueB_started,question_valueB_stopped,slider_valueB_response,slider_valueB_rt,question_valueA_started,question_valueA_stopped,slider_valueA_response,slider_valueA_rt,Importance_First,Importance_Second,Importance_Third,question_diff_started,question_diff_stopped,slider_diffB_response,slider_diffB_rt,slider_diffC_response,slider_diffC_rt,slider_diffA_response,slider_diffA_rt,diff_First,diff_Second,diff_Third,button_3_started,button_3_stopped,text_2_started,text_2_stopped,Imagesdecision_started,question_diffB_started,question_diffB_stopped,question_diffA_started,question_diffA_stopped,question_diffC_started,question_diffC_stopped,participant,session,date,expName,psychopyVersion,frameRate,
3,2,Plan a party to celebrate your birthday,Stimuli/2A1t.jpg,Stimuli/2A2t.jpg,Stimuli/2A3t.jpg,Stimuli/2B1t.jpg,Stimuli/2B2t.jpg,Stimuli/2B3t.jpg,Stimuli/2C1t.jpg,Stimuli/2C2t.jpg,Stimuli/2C3t.jpg,0,0,0,0,,,,,34.75941619999503,None,1,[1.03346959999908],[1.0334870999940904],34.75941619999503,None,102.29162119999819,None,103.29497639999317,None,109.29484450000018,None,"[-0.377, 0.138]","[0.066, -0.395]","[0.306, 0.255]","[-0.378, -0.136]","[0.304, -0.26]","[0.07, 0.393]","[-0.2, 0.346]","[-0.203, -0.347]","[0.399, -0.003]",113.29600719999871,15.582343809983286,22.09932220997871,18.5329509099829,"[-0.36018518518518516, -0.13055555555555556, -0.3824074074074074]","[0.10555555555555556, 0.2898148148148148, -0.1037037037037037]","[1, 1, 1]","[0, 0, 0]","[0, 0, 0]","[15.58047539999825, 18.53049689999898, 22.097170900000492]",0.0014308099780464545,22.09853290997853,['A1'],['B1'],['C1'],['salmon'],['blue'],['yellow'],135.8606221999944,None,10.0,5.730075700004818,135.8606221999944,None,141.67708129999664,None,7.0,9.76444420000189,152.9933724999937,None,4.0,12.165149400003429,164.89724679999927,None,8.0,5.514618599998357,<function functionImportanceCt at 0x000001CB1DBE9EA0>,<function functionImportanceBt at 0x000001CB1DBE9B70>,<function functionImportanceAt at 0x000001CB10A81E18>,180.37615639999422,None,7.0,6.730672799996682,4.0,4.047191699995892,3.0,5.514618599998357,<function functiondiffBt at 0x000001CB1DE212F0>,<function functiondiffCt at 0x000001CB1DE21D90>,<function functiondiffAt at 0x000001CB1DE21840>,,,,,,,,,,,,28,001,2022_Jul_20_1810,2leo,2021.2.3,59.98616718839323,
3,3,Plan one week of vacation,Stimuli/3A1t.jpg,Stimuli/3A2t.jpg,Stimuli/3A3t.jpg,Stimuli/3B1t.jpg,Stimuli/3B2t.jpg,Stimuli/3B3t.jpg,Stimuli/3C1t.jpg,Stimuli/3C2t.jpg,Stimuli/3C3t.jpg,0,1,1,1,,,,,,,,,,,,183.84277499999735,None,184.8428203000003,None,190.8426072000002,None,"[-0.378, -0.136]","[0.07, 0.393]","[0.304, -0.26]","[-0.2, 0.346]","[0.399, -0.003]","[-0.203, -0.347]","[-0.377, 0.138]","[0.306, 0.255]","[0.066, -0.395]",196.89188920000015,21.023983349972696,12.591599849976774,26.624511549976887,"[-0.13333333333333333, 0.05462962962962963, -0.32222222222222224]","[-0.3314814814814815, 0.43425925925925923, 0.11296296296296296]","[1, 1, 1]","[0, 0, 0]","[0, 0, 0]","[12.57859049999388, 21.01137139999628, 26.61145079999551]",0.012065149974660017,26.62327584997547,['A2'],['B3'],['C1'],['salmon'],['blue'],['yellow'],223.95836079999572,None,10.0,3.63035200000013,223.95836079999572,None,229.07470349999494,None,9.0,10.19723779999913,239.57479590000003,None,4.0,11.69832740000129,251.4928959999961,None,7.0,8.748300000006566,<function functionImportanceCt at 0x000001CB0D9231E0>,<function functionImportanceBt at 0x000001CB1DBE99D8>,<function functionImportanceAt at 0x000001CB1DBE9D90>,271.80725139999413,None,4.0,6.181103700000676,2.0,7.197797300003003,3.0,8.748300000006566,<function functiondiffAt at 0x000001CB1DE21A60>,<function functiondiffCt at 0x000001CB1DE219D8>,<function functiondiffBt at 0x000001CB1DE21AE8>,,,,,,,,,,,,28,001,2022_Jul_20_1810,2leo,2021.2.3,59.98616718839323,
3,42,Plan how to draw a painting ,Stimuli/42A1.jpg,Stimuli/42A2.jpg,Stimuli/42A3.jpg,Stimuli/42B1.jpg,Stimuli/42B2.jpg,Stimuli/42B3.jpg,Stimuli/42C1.jpg,Stimuli/42C2.jpg,Stimuli/42C3.jpg,,,,,0,0,0,42,,,,,,,,370.2483216999972,None,371.2380712999948,None,377.23777659999905,None,"[-0.378, -0.136]","[0.07, 0.393]","[0.304, -0.26]","[-0.2, 0.346]","[0.399, -0.003]","[-0.203, -0.347]","[-0.377, 0.138]","[0.306, 0.255]","[0.066, -0.395]",,33.575336890011386,11.475987890007673,37.29208029000438,"[-0.22962962962962963, 0.32407407407407407, -0.3861111111111111]","[0.3731481481481482, -0.24351851851851852, 0.10462962962962963]","[1, 1, 1]","[0, 0, 0]","[0, 0, 0]","[11.472443400001794, 33.57189709999511, 37.2882677000016]",0.0028360900105326436,37.29108079001162,['A3'],['B1'],['C1'],['yellow'],['blue'],['salmon'],416.3198521999948,None,5.0,6.895987500000047,416.3198521999948,None,423.3197929999951,None,6.0,12.797233700002835,442.50278969999636,None,3.0,5.781604100004188,436.30330619999586,None,5.0,6.365052000001015,<function functionImportanceC at 0x000001CB1E0B5C80>,<function functionImportanceA at 0x000001CB1DBE9F28>,<function functionImportanceB at 0x000001CB1DE21BF8>,,,3.0,7.980394300000626,10.0,6.365052000001015,10.0,6.38135450000118,<function functiondiffB at 0x000001CB1DE21378>,<function functiondiffA at 0x000001CB1DE21620>,<function functiondiffC at 0x000001CB1DE21510>,277.1236359999966,None,277.1236359999966,None,378.54850639999495,448.2357617999951,None,456.2855563999983,None,462.65221629999724,None,28,001,2022_Jul_20_1810,2leo,2021.2.3,59.98616718839323,
3,31,Plan your order at a restaurant    ,Stimuli/31A1.jpg,Stimuli/31A2.jpg,Stimuli/31A3.jpg,Stimuli/31B1.jpg,Stimuli/31B2.jpg,Stimuli/31B3.jpg,Stimuli/31C1.jpg,Stimuli/31C2.jpg,Stimuli/31C3.jpg,,,,,0,1,1,31,,,,,,,,465.8520231999937,None,466.852095299997,None,472.85195729999396,None,"[-0.378, -0.136]","[0.07, 0.393]","[0.304, -0.26]","[-0.2, 0.346]","[0.399, -0.003]","[-0.203, -0.347]","[-0.377, 0.138]","[0.306, 0.255]","[0.066, -0.395]",,12.99322345998371,7.376942459981365,25.52693395998358,"[0.3435185185185185, 0.09259259259259259, -0.30648148148148147]","[-0.006481481481481481, 0.3712962962962963, 0.13518518518518519]","[1, 1, 1]","[0, 0, 0]","[0, 0, 0]","[7.362427699998079, 12.97877840000001, 25.512149199996202]",0.01370175998454215,25.52559605998249,['A2'],['B2'],['C1'],['salmon'],['blue'],['yellow'],501.4176792999933,None,8.0,3.313315600003989,501.4176792999933,None,504.8345246999961,None,7.0,10.730869700004405,515.5508784999984,None,9.0,3.6488083000003826,520.6172015999982,None,4.0,5.798506899998756,<function functionImportanceC at 0x000001CB1E0B5488>,<function functionImportanceB at 0x000001CB1D4989D8>,<function functionImportanceA at 0x000001CB156E1E18>,,,0.0,5.913993499998469,5.0,5.798506899998756,1.0,5.09769740000047,<function functiondiffB at 0x000001CB1E0B5B70>,<function functiondiffC at 0x000001CB1E0B5BF8>,<function functiondiffA at 0x000001CB1E0B5268>,,,,,475.4386755999949,525.0005629999941,None,537.1500681999969,None,530.9336296999973,None,28,001,2022_Jul_20_1810,2leo,2021.2.3,59.98616718839323,
3,33,Plan the items to decorate your Christmas tree,Stimuli/33A1.jpg,Stimuli/33A2.jpg,Stimuli/33A3.jpg,Stimuli/33B1.jpg,Stimuli/33B2.jpg,Stimuli/33B3.jpg,Stimuli/33C1.jpg,Stimuli/33C2.jpg,Stimuli/33C3.jpg,,,,,0,2,2,33,,,,,,,,541.4332861999937,None,542.4333521999943,None,548.4333544999972,None,"[0.306, 0.255]","[0.066, -0.395]","[-0.377, 0.138]","[0.399, -0.003]","[-0.203, -0.347]","[-0.2, 0.346]","[0.07, 0.393]","[0.304, -0.26]","[-0.378, -0.136]",,28.331281119993946,34.86484931999439,23.565078019993962,"[-0.3574074074074074, 0.3287037037037037, -0.21388888888888888]","[-0.10277777777777777, 0.21851851851851853, -0.37222222222222223]","[1, 1, 1]","[0, 0, 0]","[0, 0, 0]","[23.551661999998032, 28.318557599995984, 34.85172039999452]",0.012321119997068308,34.86378901999706,['A1'],['B2'],['C3'],['salmon'],['yellow'],['blue'],585.4487511999978,None,3.0,2.9969676000036998,585.4487511999978,None,588.5321241999991,None,4.0,10.798633499995049,604.0652169999958,None,1.0,9.48159950000263,599.8984266999978,None,7.0,4.715040499999304,<function functionImportanceC at 0x000001CB1DE216A8>,<function functionImportanceA at 0x000001CB1DE21488>,<function functionImportanceB at 0x000001CB1DE21730>,,,7.0,2.998243999994884,8.0,4.715040499999304,8.0,5.9311650000017835,<function functiondiffC at 0x000001CB1E0B5620>,<function functiondiffB at 0x000001CB1E0B5950>,<function functiondiffA at 0x000001CB1DE211E0>,,,,,550.1255077999958,617.2149388999969,None,620.3646254999985,None,613.5315816999937,None,28,001,2022_Jul_20_1810,2leo,2021.2.3,59.98616718839323,
3,9,Plan a picnic with friends,Stimuli/9A1.jpg,Stimuli/9A2.jpg,Stimuli/9A3.jpg,Stimuli/9B1.jpg,Stimuli/9B2.jpg,Stimuli/9B3.jpg,Stimuli/9C1.jpg,Stimuli/9C2.jpg,Stimuli/9C3.jpg,,,,,0,3,3,9,,,,,,,,625.6810775999984,None,626.6811359999992,None,632.6811881999965,None,"[0.304, -0.26]","[0.07, 0.393]","[-0.378, -0.136]","[-0.203, -0.347]","[0.399, -0.003]","[-0.2, 0.346]","[0.066, -0.395]","[0.306, 0.255]","[-0.377, 0.138]",,22.733852559977095,29.950425359980727,12.118094459976419,"[0.36574074074074076, 0.35, -0.19722222222222222]","[0.27314814814814814, -0.28703703703703703, -0.3175925925925926]","[1, 1, 1]","[0, 0, 0]","[0, 0, 0]","[12.113625499994669, 22.730100599997968, 29.946373899998434]",0.003318359980767127,29.949613759978092,['A1'],['B1'],['C2'],['salmon'],['yellow'],['blue'],668.4967098999987,None,8.0,2.9978638000029605,668.4967098999987,None,679.9015107999949,None,6.0,9.798103599998285,689.5126318999974,None,7.0,10.748023699998157,673.0633462999976,None,8.0,6.846445400005905,<function functionImportanceA at 0x000001CB1E0B5730>,<function functionImportanceC at 0x000001CB1E0B5158>,<function functionImportanceB at 0x000001CB1E0B50D0>,,,7.0,3.481183999996574,-0.0,6.846445400005905,3.0,4.364426500003901,<function functiondiffB at 0x000001CB1E0B5598>,<function functiondiffA at 0x000001CB1DE21F28>,<function functiondiffC at 0x000001CB1E0B5EA0>,,,,,638.0863245,699.3626970999976,None,702.9314709999962,None,707.3291183999972,None,28,001,2022_Jul_20_1810,2leo,2021.2.3,59.98616718839323,
3,7,Plan your Sunday breakfast ,Stimuli/7A1.jpg,Stimuli/7A2.jpg,Stimuli/7A3.jpg,Stimuli/7B1.jpg,Stimuli/7B2.jpg,Stimuli/7B3.jpg,Stimuli/7C1.jpg,Stimuli/7C2.jpg,Stimuli/7C3.jpg,,,,,0,4,4,7,,,,,,,,710.445513599996,None,711.4457542999953,None,717.4456390999985,None,"[0.399, -0.003]","[-0.203, -0.347]","[-0.2, 0.346]","[0.07, 0.393]","[0.304, -0.26]","[-0.378, -0.136]","[0.306, 0.255]","[0.066, -0.395]","[-0.377, 0.138]",,23.232894539978588,34.63249753997661,41.266205339976295,"[-0.14907407407407408, 0.2722222222222222, -0.38055555555555554]","[0.28425925925925927, -0.21296296296296297, 0.1648148148148148]","[1, 1, 1]","[0, 0, 0]","[0, 0, 0]","[23.21598919999815, 34.61538680000376, 41.248806100004]",0.016299039976729546,41.26453223997669,['A3'],['B2'],['C3'],['yellow'],['blue'],['salmon'],765.1774921999968,None,1.0,4.56303449999541,765.1774921999968,None,785.610431299996,None,6.0,5.481930300004024,771.744091499997,None,9.0,7.214045500004431,778.8769848999946,None,9.0,7.2818556999991415,<function functionImportanceB at 0x000001CB1E0B5048>,<function functionImportanceA at 0x000001CB1E0B58C8>,<function functionImportanceC at 0x000001CB1E0B5378>,,,10.0,3.8979586999994353,10.0,7.2818556999991415,10.0,5.814314299997932,<function functiondiffC at 0x000001CB1E0B5E18>,<function functiondiffA at 0x000001CB1E0B5840>,<function functiondiffB at 0x000001CB1E0B5D08>,,,,,723.4648577999978,802.9433071999956,None,796.9601514999958,None,790.160261099998,None,28,001,2022_Jul_20_1810,2leo,2021.2.3,59.98616718839323,
3,37,Plan your cleaning routine ,Stimuli/37A1.jpg,Stimuli/37A2.jpg,Stimuli/37A3.jpg,Stimuli/37B1.jpg,Stimuli/37B2.jpg,Stimuli/37B3.jpg,Stimuli/37C1.jpg,Stimuli/37C2.jpg,Stimuli/37C3.jpg,,,,,0,5,5,37,,,,,,,,805.693022899999,None,806.6931364999982,None,812.6931646999947,None,"[-0.203, -0.347]","[0.399, -0.003]","[-0.2, 0.346]","[0.066, -0.395]","[0.306, 0.255]","[-0.377, 0.138]","[0.304, -0.26]","[0.07, 0.393]","[-0.378, -0.136]",,40.48324419999699,17.50075249999645,25.93395729999611,"[-0.3314814814814815, 0.10555555555555556, 0.4388888888888889]","[0.125, 0.3990740740740741, -0.041666666666666664]","[1, 1, 1]","[0, 0, 0]","[0, 0, 0]","[17.48389060000045, 25.916948899997806, 40.46672840000247]",0.015987599996151403,40.482570100000885,['A2'],['B3'],['C2'],['blue'],['salmon'],['yellow'],854.7919463999933,None,2.0,4.663804100004199,854.7919463999933,None,859.5419102999949,None,3.0,5.631265999996685,865.2250763999982,None,6.0,9.381283400005486,874.6247352999999,None,4.0,7.114867599993886,<function functionImportanceC at 0x000001CB1FF44158>,<function functionImportanceB at 0x000001CB1E0B5AE8>,<function functionImportanceA at 0x000001CB1E0B57B8>,,,5.0,3.564241400003084,3.0,7.114867599993886,6.0,4.247740699996939,<function functiondiffB at 0x000001CB1E0B59D8>,<function functiondiffA at 0x000001CB1E0B51E0>,<function functiondiffC at 0x000001CB1FF44950>,,,,,813.8420512999946,881.674669299995,None,885.2579138000001,None,889.5243664999944,None,28,001,2022_Jul_20_1810,2leo,2021.2.3,59.98616718839323,
3,22,Plan a beach day with your friends,Stimuli/22A1.jpg,Stimuli/22A2.jpg,Stimuli/22A3.jpg,Stimuli/22B1.jpg,Stimuli/22B2.jpg,Stimuli/22B3.jpg,Stimuli/22C1.jpg,Stimuli/22C2.jpg,Stimuli/22C3.jpg,,,,,0,6,6,22,,,,,,,,893.8407127999963,None,894.840946999997,None,900.8408807999949,None,"[0.399, -0.003]","[-0.2, 0.346]","[-0.203, -0.347]","[0.07, 0.393]","[-0.378, -0.136]","[0.304, -0.26]","[0.306, 0.255]","[-0.377, 0.138]","[0.066, -0.395]",,7.426470890000928,24.84323129000404,17.244402789998276,"[0.412962962962963, -0.3675925925925926, -0.32685185185185184]","[0.010185185185185186, 0.13240740740740742, -0.10092592592592593]","[1, 1, 1]","[0, 0, 0]","[0, 0, 0]","[7.413512699997227, 17.230848200000764, 24.829867100001138]",0.012552389998745639,24.842286290004267,['A1'],['B2'],['C2'],['blue'],['yellow'],['salmon'],927.289922099997,None,8.0,3.4633442999984254,927.289922099997,None,942.2729459999973,None,10.0,3.048584399999527,936.9898227999947,None,5.0,5.231776000000536,930.8233943999949,None,5.0,6.164234000003489,<function functionImportanceA at 0x000001CB1FF44598>,<function functionImportanceB at 0x000001CB1FF44400>,<function functionImportanceC at 0x000001CB1FF44620>,,,7.0,6.980851000000257,0.0,6.164234000003489,-0.0,6.114455800001451,<function functiondiffB at 0x000001CB1FF44AE8>,<function functiondiffC at 0x000001CB1FF44B70>,<function functiondiffA at 0x000001CB1FF447B8>,,,,,901.9746274999998,945.2895968999946,None,955.8059998999961,None,952.2894975999952,None,28,001,2022_Jul_20_1810,2leo,2021.2.3,59.98616718839323,
3,15,Plan your own Pasta for lunch,Stimuli/15A1.jpg,Stimuli/15A2.jpg,Stimuli/15A3.jpg,Stimuli/15B1.jpg,Stimuli/15B2.jpg,Stimuli/15B3.jpg,Stimuli/15C1.jpg,Stimuli/15C2.jpg,Stimuli/15C3.jpg,,,,,0,7,7,15,,,,,,,,961.4390033999953,None,962.4392716000002,None,968.4391218999954,None,"[0.066, -0.395]","[-0.377, 0.138]","[0.306, 0.255]","[-0.203, -0.347]","[-0.2, 0.346]","[0.399, -0.003]","[0.304, -0.26]","[-0.378, -0.136]","[0.07, 0.393]",,15.877624029999424,28.060888629996043,18.878198329999577,"[0.2833333333333333, 0.07314814814814814, -0.22037037037037038]","[0.22592592592592592, 0.42685185185185187, 0.3509259259259259]","[1, 1, 1]","[0, 0, 0]","[0, 0, 0]","[15.87599179999961, 18.87599760000012, 28.059083699998155]",0.0010364299960201606,28.059975929994835,['A3'],['B2'],['C3'],['salmon'],['yellow'],['blue'],998.8547550999938,None,7.0,3.230322499999602,998.8547550999938,None,1015.2224957999933,None,8.0,7.098480499997095,1008.4713781999963,None,7.0,6.014300499999081,1002.2214697999952,None,5.0,6.314214699996228,<function functionImportanceA at 0x000001CB1DE21400>,<function functionImportanceB at 0x000001CB1E0B5A60>,<function functionImportanceC at 0x000001CB1FF44C80>,,,8.0,4.097899599997618,-0.0,6.314214699996228,7.0,5.464195799999288,<function functiondiffA at 0x000001CB1FF44048>,<function functiondiffB at 0x000001CB1E0B5F28>,<function functiondiffC at 0x000001CB1E0B5D90>,,,,,970.3271574999962,1027.087543099995,None,1021.6043286999993,None,1031.3370380999986,None,28,001,2022_Jul_20_1810,2leo,2021.2.3,59.98616718839323,
3,0,Plan a barbecue,Stimuli/0A1.jpg,Stimuli/0A2.jpg,Stimuli/0A3.jpg,Stimuli/0B1.jpg,Stimuli/0B2.jpg,Stimuli/0B3.jpg,Stimuli/0C1.jpg,Stimuli/0C2.jpg,Stimuli/0C3.jpg,,,,,0,8,8,0,,,,,,,,1034.0703700999948,None,1035.0706508999938,None,1041.0705378999992,None,"[0.306, 0.255]","[0.066, -0.395]","[-0.377, 0.138]","[0.07, 0.393]","[0.304, -0.26]","[-0.378, -0.136]","[0.399, -0.003]","[-0.203, -0.347]","[-0.2, 0.346]",,41.8975384699952,18.78181556999334,31.165383969993854,"[0.09907407407407408, -0.19074074074074074, 0.09537037037037037]","[0.3472222222222222, 0.2953703703703704, -0.4527777777777778]","[1, 1, 1]","[0, 0, 0]","[0, 0, 0]","[18.772425600000133, 31.15561280000111, 41.88832949999778]",0.008681569990585558,41.89692746999208,['A2'],['B1'],['C3'],['blue'],['yellow'],['salmon'],1085.8690276999987,None,5.0,5.330583899994963,1085.8690276999987,None,1091.2855608999962,None,1.0,5.313935799997125,1103.6022204999972,None,8.0,3.131695599993691,1097.9189014999938,None,8.0,6.981736400004593,<function functionImportanceC at 0x000001CB1FF44268>,<function functionImportanceA at 0x000001CB1FF440D0>,<function functionImportanceB at 0x000001CB1FF44BF8>,,,-0.0,3.197738800001389,8.0,6.981736400004593,10.0,3.481599599996116,<function functiondiffC at 0x000001CB1FF44E18>,<function functiondiffA at 0x000001CB1D33AF28>,<function functiondiffB at 0x000001CB1FF442F0>,,,,,1043.5145161999972,1114.9185185999959,None,1111.818604,None,1106.7188393999968,None,28,001,2022_Jul_20_1810,2leo,2021.2.3,59.98616718839323,
3,34,Plan what car you want to buy,Stimuli/34A1.jpg,Stimuli/34A2.jpg,Stimuli/34A3.jpg,Stimuli/34B1.jpg,Stimuli/34B2.jpg,Stimuli/34B3.jpg,Stimuli/34C1.jpg,Stimuli/34C2.jpg,Stimuli/34C3.jpg,,,,,0,9,9,34,,,,,,,,1117.6348925999991,None,1118.6351491999958,None,1124.6350327999971,None,"[-0.377, 0.138]","[0.306, 0.255]","[0.066, -0.395]","[-0.378, -0.136]","[0.07, 0.393]","[0.304, -0.26]","[-0.2, 0.346]","[0.399, -0.003]","[-0.203, -0.347]",,23.86677665998286,25.850858559984772,33.383455659983156,"[0.0824074074074074, -0.4222222222222222, -0.15925925925925927]","[-0.35, -0.1111111111111111, -0.27685185185185185]","[1, 1, 1]","[0, 0, 0]","[0, 0, 0]","[23.859733800003596, 25.843752500004484, 33.37587780000467]",0.006435159986722283,33.382302959980734,['A3'],['B1'],['C3'],['salmon'],['blue'],['yellow'],1161.5669342999972,None,6.0,3.697361300000921,1161.5669342999972,None,1172.0003169999982,None,8.0,4.215233299997635,1177.183505999994,None,9.0,8.198289499996463,1166.4005342999953,None,10.0,6.647625400000834,<function functionImportanceA at 0x000001CB1FF44378>,<function functionImportanceC at 0x000001CB21468158>,<function functionImportanceB at 0x000001CB21468598>,,,7.0,4.197566399998323,6.0,6.647625400000834,6.0,11.63065590000042,<function functiondiffA at 0x000001CB1FF44EA0>,<function functiondiffB at 0x000001CB1FF44F28>,<function functiondiffC at 0x000001CB1FF44A60>,,,,,1127.7220482999983,1196.3003070999985,None,1184.7500527999946,None,1200.2830426,None,28,001,2022_Jul_20_1810,2leo,2021.2.3,59.98616718839323,
3,14,Plan your own Pizza for dinner,Stimuli/14A1.jpg,Stimuli/14A2.jpg,Stimuli/14A3.jpg,Stimuli/14B1.jpg,Stimuli/14B2.jpg,Stimuli/14B3.jpg,Stimuli/14C1.jpg,Stimuli/14C2.jpg,Stimuli/14C3.jpg,,,,,0,10,10,14,,,,,,,,1206.349040999994,None,1207.3494143999997,None,1213.3492665999947,None,"[-0.378, -0.136]","[0.07, 0.393]","[0.304, -0.26]","[-0.377, 0.138]","[0.306, 0.255]","[0.066, -0.395]","[-0.2, 0.346]","[0.399, -0.003]","[-0.203, -0.347]",,18.963532609996037,21.08047080999677,5.097770809996291,"[-0.1574074074074074, 0.08333333333333333, -0.3435185185185185]","[0.387037037037037, 0.3685185185185185, 0.12129629629629629]","[1, 1, 1]","[0, 0, 0]","[0, 0, 0]","[5.082556699999259, 18.948685999996087, 21.065461599995615]",0.014289609993284103,21.079587909996917,['A2'],['B1'],['C1'],['blue'],['salmon'],['yellow'],1236.0651270999952,None,8.0,3.380245799999102,1236.0651270999952,None,1248.4316287999973,None,10.0,4.8655195999963325,1253.398251999999,None,10.0,9.431546700005129,1239.5485791999963,None,6.0,8.914237299999513,<function functionImportanceA at 0x000001CB21468488>,<function functionImportanceC at 0x000001CB214688C8>,<function functionImportanceB at 0x000001CB214686A8>,,,6.0,5.831666899997799,-0.0,8.914237299999513,-0.0,3.2644694999980857,<function functiondiffC at 0x000001CB21468B70>,<function functiondiffB at 0x000001CB1FF44730>,<function functiondiffA at 0x000001CB1FF449D8>,,,,,1214.5152893999984,1265.8313707999987,None,1271.6644753999935,None,1262.7478925999967,None,28,001,2022_Jul_20_1810,2leo,2021.2.3,59.98616718839323,
3,3,Plan a movie night with a friend,Stimuli/3A1.jpg,Stimuli/3A2.jpg,Stimuli/3A3.jpg,Stimuli/3B1.jpg,Stimuli/3B2.jpg,Stimuli/3B3.jpg,Stimuli/3C1.jpg,Stimuli/3C2.jpg,Stimuli/3C3.jpg,,,,,0,11,11,3,,,,,,,,1274.4473528999952,None,1275.4478313,None,1281.4477235999948,None,"[-0.378, -0.136]","[0.07, 0.393]","[0.304, -0.26]","[-0.2, 0.346]","[0.399, -0.003]","[-0.203, -0.347]","[-0.377, 0.138]","[0.306, 0.255]","[0.066, -0.395]",,18.547872829985863,34.81441952999012,37.94800262998615,"[-0.32407407407407407, -0.21203703703703702, 0.03981481481481482]","[-0.09907407407407408, -0.3314814814814815, -0.36574074074074076]","[1, 1, 1]","[0, 0, 0]","[0, 0, 0]","[18.544243599993933, 34.810452499994426, 37.943780399997195]",0.003072529987548478,37.94658822998463,['A1'],['B3'],['C3'],['yellow'],['blue'],['salmon'],1323.3962856999933,None,8.0,2.413463100005174,1323.3962856999933,None,1332.515358699995,None,3.0,9.181663499999559,1326.5796234999943,None,9.0,4.914522200000647,1340.0129177999988,None,7.0,4.498127299993939,<function functionImportanceB at 0x000001CB21468A60>,<function functionImportanceC at 0x000001CB21468400>,<function functionImportanceA at 0x000001CB214682F0>,,,9.0,7.081387899997935,2.0,4.498127299993939,2.0,4.2977685000005295,<function functiondiffA at 0x000001CB1DE210D0>,<function functiondiffB at 0x000001CB1FF441E0>,<function functiondiffC at 0x000001CB21468E18>,,,,,1284.9847802000004,1349.182774599998,None,1344.4959141999934,None,1356.2455114999975,None,28,001,2022_Jul_20_1810,2leo,2021.2.3,59.98616718839323,
3,30,Plan your sport work out for tomorrow,Stimuli/30A1.jpg,Stimuli/30A2.jpg,Stimuli/30A3.jpg,Stimuli/30B1.jpg,Stimuli/30B2.jpg,Stimuli/30B3.jpg,Stimuli/30C1.jpg,Stimuli/30C2.jpg,Stimuli/30C3.jpg,,,,,0,12,12,30,,,,,,,,1361.6785084000003,None,1362.678720799995,None,1368.678666599997,None,"[0.07, 0.393]","[0.304, -0.26]","[-0.378, -0.136]","[0.306, 0.255]","[0.066, -0.395]","[-0.377, 0.138]","[0.399, -0.003]","[-0.203, -0.347]","[-0.2, 0.346]",,25.2206359099946,20.40426750999177,28.904404709996015,"[0.3, 0.3435185185185185, -0.2175925925925926]","[0.2759259259259259, -0.24444444444444444, 0.3490740740740741]","[1, 1, 1]","[0, 0, 0]","[0, 0, 0]","[20.402405499997258, 25.218962400002056, 28.902131900002132]",0.0011704099961207248,28.903005309992295,['A2'],['B1'],['C3'],['yellow'],['salmon'],['blue'],1399.2441762999952,None,8.0,2.7800852000000305,1399.2441762999952,None,1407.1441294999968,None,0.0,6.281504099999438,1402.161110999994,None,9.0,4.997725299996091,1413.4107952999984,None,10.0,4.115023700003803,<function functionImportanceB at 0x000001CB21468F28>,<function functionImportanceC at 0x000001CB21468D08>,<function functionImportanceA at 0x000001CB214681E0>,,,2.0,8.230665499999304,1.0,4.115023700003803,8.0,5.247944800001278,<function functiondiffA at 0x000001CB21468268>,<function functiondiffB at 0x000001CB214687B8>,<function functiondiffC at 0x000001CB1FF448C8>,,,,,1369.8577953999993,1422.7939053999944,None,1417.5106170999934,None,1431.0270059999966,None,28,001,2022_Jul_20_1810,2leo,2021.2.3,59.98616718839323,
3,20,Plan a tea party with your friends,Stimuli/20A1.jpg,Stimuli/20A2.jpg,Stimuli/20A3.jpg,Stimuli/20B1.jpg,Stimuli/20B2.jpg,Stimuli/20B3.jpg,Stimuli/20C1.jpg,Stimuli/20C2.jpg,Stimuli/20C3.jpg,,,,,0,13,13,20,,,,,,,,1435.0099424999935,None,1436.0100296999954,None,1442.010027999997,None,"[0.304, -0.26]","[0.07, 0.393]","[-0.378, -0.136]","[-0.203, -0.347]","[0.399, -0.003]","[-0.2, 0.346]","[0.066, -0.395]","[0.306, 0.255]","[-0.377, 0.138]",,33.730433039985655,28.83080253998196,43.38066993998655,"[-0.1388888888888889, 0.058333333333333334, -0.35462962962962963]","[0.3175925925925926, 0.3861111111111111, 0.06944444444444445]","[1, 1, 1]","[0, 0, 0]","[0, 0, 0]","[28.827171200005978, 33.72720980000304, 43.37681580000208]",0.002717239985940978,43.37946083998395,['A2'],['B3'],['C3'],['blue'],['yellow'],['salmon'],1489.408604199998,None,5.0,3.34688570000435,1489.408604199998,None,1506.574798099995,None,8.0,3.7653950000021723,1500.6751124999937,None,8.0,8.314686499994423,1492.8421410999945,None,8.0,5.4146756999980425,<function functionImportanceA at 0x000001CB1FF44510>,<function functionImportanceB at 0x000001CB21468840>,<function functionImportanceC at 0x000001CB21468AE8>,,,3.0,4.881401600003301,10.0,5.4146756999980425,9.0,9.3808749000018,<function functiondiffA at 0x000001CB21468D90>,<function functiondiffC at 0x000001CB1FF44488>,<function functiondiffB at 0x000001CB21468730>,,,,,1445.5638758999994,1522.4410909999933,None,1510.341452099994,None,1519.7412826,None,28,001,2022_Jul_20_1810,2leo,2021.2.3,59.98616718839323,
3,8,Plan the interior of your living-room ,Stimuli/8A1.jpg,Stimuli/8A2.jpg,Stimuli/8A3.jpg,Stimuli/8B1.jpg,Stimuli/8B2.jpg,Stimuli/8B3.jpg,Stimuli/8C1.jpg,Stimuli/8C2.jpg,Stimuli/8C3.jpg,,,,,0,14,14,8,,,,,,,,1526.3076229999933,None,1527.3077811999974,None,1533.3076245999982,None,"[0.07, 0.393]","[0.304, -0.26]","[-0.378, -0.136]","[0.399, -0.003]","[-0.203, -0.347]","[-0.2, 0.346]","[0.306, 0.255]","[0.066, -0.395]","[-0.377, 0.138]",,13.128285579987278,36.02829327998916,26.678397679992486,"[0.11018518518518519, 0.1388888888888889, 0.362962962962963]","[0.3962962962962963, -0.3472222222222222, 0.020370370370370372]","[1, 1, 1]","[0, 0, 0]","[0, 0, 0]","[13.124250400003802, 26.67363050000131, 36.0239825000026]",0.003617779992055148,36.027025179988414,['A1'],['B1'],['C2'],['yellow'],['salmon'],['blue'],1574.5730565999984,None,8.0,2.8632686999990256,1574.5730565999984,None,1589.4262479999961,None,9.0,4.2806561999968835,1583.2564149999962,None,9.0,6.065492100002302,1577.506398599995,None,10.0,3.93090640000446,<function functionImportanceA at 0x000001CB21468BF8>,<function functionImportanceB at 0x000001CB21468620>,<function functionImportanceC at 0x000001CB21468510>,,,8.0,5.247653000005812,8.0,3.93090640000446,3.0,4.447875199999544,<function functiondiffB at 0x000001CB21468378>,<function functiondiffC at 0x000001CB2339B7B8>,<function functiondiffA at 0x000001CB21468C80>,,,,,1538.0828320999935,1592.339446099999,None,1600.4391512999937,None,1597.6085886,None,28,001,2022_Jul_20_1810,2leo,2021.2.3,59.98616718839323,
3,40,Plan to see a sports event ,Stimuli/40A1.jpg,Stimuli/40A2.jpg,Stimuli/40A3.jpg,Stimuli/40B1.jpg,Stimuli/40B2.jpg,Stimuli/40B3.jpg,Stimuli/40C1.jpg,Stimuli/40C2.jpg,Stimuli/40C3.jpg,,,,,0,15,15,40,,,,,,,,1628.5883896999949,None,1629.5884002999956,None,1635.5883680999978,None,"[-0.377, 0.138]","[0.306, 0.255]","[0.066, -0.395]","[-0.378, -0.136]","[0.07, 0.393]","[0.304, -0.26]","[-0.2, 0.346]","[0.399, -0.003]","[-0.203, -0.347]",,40.41614000999107,27.767716809990816,10.183898009992845,"[0.44722222222222224, -0.30833333333333335, 0.3111111111111111]","[0.037037037037037035, -0.10740740740740741, 0.2740740740740741]","[1, 1, 1]","[0, 0, 0]","[0, 0, 0]","[10.167935700003, 27.75213750000694, 40.40073640000628]",0.014900709989888128,40.415305609989446,['A2'],['B1'],['C2'],['salmon'],['blue'],['yellow'],1677.8036573999998,None,9.0,3.980328700003156,1677.8036573999998,None,1694.2201145,None,5.0,4.065229699997872,1682.053709199994,None,10.0,4.747477899996738,1686.6370645999996,None,9.0,7.5152138999983435,<function functionImportanceB at 0x000001CB2339B620>,<function functionImportanceA at 0x000001CB214680D0>,<function functionImportanceC at 0x000001CB2339B9D8>,,,4.0,4.897425600000133,0.0,7.5152138999983435,8.0,5.2979847000024165,<function functiondiffB at 0x000001CB2339BB70>,<function functiondiffA at 0x000001CB2339B048>,<function functiondiffC at 0x000001CB21468048>,,,,,1636.920879499994,1698.2373838999993,None,1703.1199414000002,None,1708.4363114999942,None,28,001,2022_Jul_20_1810,2leo,2021.2.3,59.98616718839323,
3,5,Plan a birthday party for your younger self when you turn eight,Stimuli/5A1.jpg,Stimuli/5A2.jpg,Stimuli/5A3.jpg,Stimuli/5B1.jpg,Stimuli/5B2.jpg,Stimuli/5B3.jpg,Stimuli/5C1.jpg,Stimuli/5C2.jpg,Stimuli/5C3.jpg,,,,,0,16,16,5,,,,,,,,1712.1524840999991,None,1713.1530403999932,None,1719.1528010999973,None,"[-0.377, 0.138]","[0.306, 0.255]","[0.066, -0.395]","[-0.378, -0.136]","[0.07, 0.393]","[0.304, -0.26]","[-0.2, 0.346]","[0.399, -0.003]","[-0.203, -0.347]",,49.13991966997128,33.24091926997062,25.34108096997079,"[0.3768518518518518, 0.05648148148148148, -0.35555555555555557]","[-0.02962962962962963, 0.3611111111111111, 0.11296296296296296]","[1, 1, 1]","[0, 0, 0]","[0, 0, 0]","[25.334800900003756, 33.23491959999956, 49.13429700000415]",0.005199569968681317,49.13930756996706,['A1'],['B2'],['C2'],['yellow'],['blue'],['salmon'],1774.5012234999958,None,7.0,2.581044999998994,1774.5012234999958,None,1777.751236199998,None,8.0,7.830884700000752,1792.083864799999,None,1.0,6.648669599999266,1787.550901399998,None,10.0,5.548257599999488,<function functionImportanceC at 0x000001CB2339B950>,<function functionImportanceA at 0x000001CB2339BC80>,<function functionImportanceB at 0x000001CB2339B598>,,,3.0,4.597645200003171,8.0,5.548257599999488,10.0,4.031276000001526,<function functiondiffB at 0x000001CB2339BE18>,<function functiondiffC at 0x000001CB2339B268>,<function functiondiffA at 0x000001CB1FF44840>,,,,,1724.904165,1797.5507400999995,None,1806.9337992999936,None,1801.9338777999947,None,28,001,2022_Jul_20_1810,2leo,2021.2.3,59.98616718839323,
3,28,Plan a one-week camping trip in Spain,Stimuli/28A1.jpg,Stimuli/28A2.jpg,Stimuli/28A3.jpg,Stimuli/28B1.jpg,Stimuli/28B2.jpg,Stimuli/28B3.jpg,Stimuli/28C1.jpg,Stimuli/28C2.jpg,Stimuli/28C3.jpg,,,,,0,17,17,28,,,,,,,,1809.7166383999938,None,1810.7170176,None,1816.717010399996,None,"[0.066, -0.395]","[-0.377, 0.138]","[0.306, 0.255]","[-0.203, -0.347]","[-0.2, 0.346]","[0.399, -0.003]","[0.304, -0.26]","[-0.378, -0.136]","[0.07, 0.393]",,22.26907690000371,36.50209639999957,28.119506400005776,"[-0.3675925925925926, -0.39166666666666666, -0.15648148148148147]","[0.14166666666666666, -0.16111111111111112, 0.32685185185185184]","[1, 1, 1]","[0, 0, 0]","[0, 0, 0]","[22.259537500001898, 28.109507900000608, 36.49243050000223]",0.00885990000097081,36.501232500006154,['A2'],['B2'],['C2'],['salmon'],['yellow'],['blue'],1854.8489319999935,None,8.0,2.5633508000028087,1854.8489319999935,None,1867.0820568999989,None,10.0,3.8149225000015576,1870.9319961999936,None,10.0,2.915793100000883,1857.5657964999991,None,10.0,9.564298600002076,<function functionImportanceA at 0x000001CB2339B510>,<function functionImportanceC at 0x000001CB2386A950>,<function functionImportanceB at 0x000001CB21468EA0>,,,8.0,11.52992280000035,0.0,9.564298600002076,3.0,4.864553100000194,<function functiondiffB at 0x000001CB2339B0D0>,<function functiondiffA at 0x000001CB2339B158>,<function functiondiffC at 0x000001CB1FF446A8>,,,,,1817.8729128999985,1873.7819122999936,None,1885.3483261000001,None,1890.2316600999984,None,28,001,2022_Jul_20_1810,2leo,2021.2.3,59.98616718839323,
3,10,Plan a restaurant visit with your family on the weekend ,Stimuli/10A1.jpg,Stimuli/10A2.jpg,Stimuli/10A3.jpg,Stimuli/10B1.jpg,Stimuli/10B2.jpg,Stimuli/10B3.jpg,Stimuli/10C1.jpg,Stimuli/10C2.jpg,Stimuli/10C3.jpg,,,,,0,18,18,10,,,,,,,,1893.331077099996,None,1894.3314126999976,None,1900.3313213000001,None,"[-0.2, 0.346]","[-0.203, -0.347]","[0.399, -0.003]","[-0.377, 0.138]","[0.066, -0.395]","[0.306, 0.255]","[-0.378, -0.136]","[0.304, -0.26]","[0.07, 0.393]",,29.804681079978764,34.321664479983156,39.72166577997996,"[-0.21851851851851853, 0.3296296296296296, 0.3148148148148148]","[-0.3537037037037037, 0.21666666666666667, -0.2740740740740741]","[1, 1, 1]","[0, 0, 0]","[0, 0, 0]","[29.799592499999562, 34.31619860000501, 39.7160531000045]",0.004589679985656403,39.720408379980654,['A2'],['B3'],['C2'],['yellow'],['blue'],['salmon'],1944.4631946999943,None,8.0,5.647038399998564,1944.4631946999943,None,1950.1633385999958,None,7.0,9.730938200002129,1969.246201899994,None,5.0,15.448329500002728,1960.029834999994,None,7.0,6.565067099996668,<function functionImportanceC at 0x000001CB2386A598>,<function functionImportanceA at 0x000001CB2386A158>,<function functionImportanceB at 0x000001CB2386A2F0>,,,0.0,7.2144885000016075,1.0,6.565067099996668,7.0,4.547780000000785,<function functiondiffC at 0x000001CB2386AAE8>,<function functiondiffA at 0x000001CB2339B8C8>,<function functiondiffB at 0x000001CB2339BAE8>,,,,,1904.2797584,1993.0622413999954,None,1987.745747699999,None,1981.9459265999976,None,28,001,2022_Jul_20_1810,2leo,2021.2.3,59.98616718839323,
3,36,Plan your shopping for new clothing,Stimuli/36A1.jpg,Stimuli/36A2.jpg,Stimuli/36A3.jpg,Stimuli/36B1.jpg,Stimuli/36B2.jpg,Stimuli/36B3.jpg,Stimuli/36C1.jpg,Stimuli/36C2.jpg,Stimuli/36C3.jpg,,,,,0,19,19,36,,,,,,,,1999.0283071999947,None,2000.028777899999,None,2006.028649199994,None,"[-0.203, -0.347]","[-0.2, 0.346]","[0.399, -0.003]","[0.304, -0.26]","[-0.378, -0.136]","[0.07, 0.393]","[0.066, -0.395]","[-0.377, 0.138]","[0.306, 0.255]",,33.147010479995515,27.664334879998933,38.96539687999757,"[0.08148148148148149, 0.3731481481481482, -0.3574074074074074]","[0.3333333333333333, -0.024074074074074074, 0.12407407407407407]","[1, 1, 1]","[0, 0, 0]","[0, 0, 0]","[27.65697999999975, 33.13997250000102, 38.95786919999955]",0.006462979996285867,38.96297878000041,['A3'],['B3'],['C2'],['salmon'],['yellow'],['blue'],2046.5941018999947,None,1.0,4.779166599997552,2046.5941018999947,None,2068.2602225999944,None,5.0,4.464857799997844,2051.4937857999976,None,2.0,10.16417999999976,2061.6271643999935,None,8.0,6.614966699999059,<function functionImportanceB at 0x000001CB2386A6A8>,<function functionImportanceA at 0x000001CB2386AB70>,<function functionImportanceC at 0x000001CB2386AC80>,,,8.0,3.1481249000062235,8.0,6.614966699999059,8.0,5.681141299995943,<function functiondiffA at 0x000001CB2339BBF8>,<function functiondiffC at 0x000001CB2339BF28>,<function functiondiffB at 0x000001CB2339B488>,,,,,2007.1522142999966,2083.3098504999944,None,2072.6935148999983,None,2078.4098658999937,None,28,001,2022_Jul_20_1810,2leo,2021.2.3,59.98616718839323,
3,43,Plan your dream house,Stimuli/43A1.jpg,Stimuli/43A2.jpg,Stimuli/43A3.jpg,Stimuli/43B1.jpg,Stimuli/43B2.jpg,Stimuli/43B3.jpg,Stimuli/43C1.jpg,Stimuli/43C2.jpg,Stimuli/43C3.jpg,,,,,0,20,20,43,,,,,,,,2085.9761612999937,None,2086.976335899999,None,2092.976472999995,None,"[0.066, -0.395]","[-0.377, 0.138]","[0.306, 0.255]","[-0.203, -0.347]","[-0.2, 0.346]","[0.399, -0.003]","[0.304, -0.26]","[-0.378, -0.136]","[0.07, 0.393]",,25.918256480006676,3.9359718800042174,14.485763580007188,"[-0.24537037037037038, 0.05925925925925926, 0.09259259259259259]","[0.3824074074074074, 0.38333333333333336, -0.3611111111111111]","[1, 1, 1]","[0, 0, 0]","[0, 0, 0]","[3.926744799995504, 14.476011099999596, 25.909376099996734]",0.008451480003714096,25.917495380002947,['A1'],['B2'],['C3'],['blue'],['yellow'],['salmon'],2120.4922192999948,None,9.0,2.6796943999943323,2120.4922192999948,None,2127.7588476999954,None,9.0,3.7151278000019374,2131.4920066999985,None,8.0,3.5317328999954043,2123.258776799994,None,6.0,4.514595100001316,<function functionImportanceA at 0x000001CB2386AD90>,<function functionImportanceC at 0x000001CB2386A9D8>,<function functionImportanceB at 0x000001CB2386A620>,,,-0.0,2.9817849999963073,2.0,4.514595100001316,3.0,3.980992699995113,<function functiondiffA at 0x000001CB2386A378>,<function functiondiffC at 0x000001CB2386AA60>,<function functiondiffB at 0x000001CB2386A510>,,,,,2094.0976486,2142.8083707999976,None,2135.008645899994,None,2139.025259599999,None,28,001,2022_Jul_20_1810,2leo,2021.2.3,59.98616718839323,
3,29,Plan a day in the mountains ,Stimuli/29A1.jpg,Stimuli/29A2.jpg,Stimuli/29A3.jpg,Stimuli/29B1.jpg,Stimuli/29B2.jpg,Stimuli/29B3.jpg,Stimuli/29C1.jpg,Stimuli/29C2.jpg,Stimuli/29C3.jpg,,,,,0,21,21,29,,,,,,,,2145.307817599998,None,2146.308311499997,None,2152.3081034999996,None,"[-0.377, 0.138]","[0.306, 0.255]","[0.066, -0.395]","[-0.2, 0.346]","[0.399, -0.003]","[-0.203, -0.347]","[-0.378, -0.136]","[0.07, 0.393]","[0.304, -0.26]",,35.28485779999755,10.785649899997225,21.985571199998958,"[-0.2175925925925926, -0.39166666666666666, 0.3277777777777778]","[0.30185185185185187, -0.14444444444444443, 0.22037037037037038]","[1, 1, 1]","[0, 0, 0]","[0, 0, 0]","[10.784811800003808, 21.984487100002298, 35.28418539999984]",0.00012629999400814995,35.28413359999831,['A2'],['B1'],['C1'],['salmon'],['blue'],['yellow'],2189.240227299997,None,6.0,3.2632114999942132,2189.240227299997,None,2205.5566569999937,None,7.0,4.465355299995281,2201.623467999998,None,3.0,3.898529600002803,2192.6237458999967,None,5.0,9.047547699999996,<function functionImportanceA at 0x000001CB1FF44D08>,<function functionImportanceB at 0x000001CB1FF44D90>,<function functionImportanceC at 0x000001CB214689D8>,,,1.0,3.1810998000000836,0.0,9.047547699999996,8.0,5.598051100001612,<function functiondiffC at 0x000001CB2386A730>,<function functiondiffB at 0x000001CB2386A7B8>,<function functiondiffA at 0x000001CB2386A1E0>,,,,,2153.471681099996,2216.4065392999983,None,2219.6063175999952,None,2209.9900098999933,None,28,001,2022_Jul_20_1810,2leo,2021.2.3,59.98616718839323,
3,18,Plan your Saturday night ,Stimuli/18A1.jpg,Stimuli/18A2.jpg,Stimuli/18A3.jpg,Stimuli/18B1.jpg,Stimuli/18B2.jpg,Stimuli/18B3.jpg,Stimuli/18C1.jpg,Stimuli/18C2.jpg,Stimuli/18C3.jpg,,,,,0,22,22,18,,,,,,,,2224.723108899998,None,2225.7226902999973,None,2231.7227843,None,"[0.066, -0.395]","[0.306, 0.255]","[-0.377, 0.138]","[-0.203, -0.347]","[0.399, -0.003]","[-0.2, 0.346]","[0.304, -0.26]","[0.07, 0.393]","[-0.378, -0.136]",,17.69943986000726,34.16589766000834,31.499863560005906,"[0.075, 0.05092592592592592, -0.16203703703703703]","[-0.3907407407407407, 0.39351851851851855, -0.3416666666666667]","[1, 1, 1]","[0, 0, 0]","[0, 0, 0]","[17.691406400001142, 31.491207200000645, 34.1575490000032]",0.007626160004292615,34.1650705600041,['A1'],['B1'],['C2'],['salmon'],['yellow'],['blue'],2267.4549277999977,None,5.0,3.1469948000012664,2267.4549277999977,None,2276.3549825999944,None,7.0,4.848361399999703,2281.1881431,None,8.0,3.5981605000051786,2270.671510299995,None,9.0,5.664797900004487,<function functionImportanceA at 0x000001CB2386AE18>,<function functionImportanceC at 0x000001CB281CD1E0>,<function functionImportanceB at 0x000001CB281CD620>,,,8.0,7.230737199999567,8.0,5.664797900004487,2.0,5.764774300005229,<function functiondiffB at 0x000001CB21468950>,<function functiondiffC at 0x000001CB2339BEA0>,<function functiondiffA at 0x000001CB2386A268>,,,,,2232.8132910999993,2284.8047257999933,None,2296.4377184999976,None,2292.0544385999965,None,28,001,2022_Jul_20_1810,2leo,2021.2.3,59.98616718839323,
3,25,Plan how you want to read a book in your free time ,Stimuli/25A1.jpg,Stimuli/25A2.jpg,Stimuli/25A3.jpg,Stimuli/25B1.jpg,Stimuli/25B2.jpg,Stimuli/25B3.jpg,Stimuli/25C1.jpg,Stimuli/25C2.jpg,Stimuli/25C3.jpg,,,,,0,23,23,25,,,,,,,,2301.720477799994,None,2302.7207796000002,None,2308.720868999997,None,"[0.399, -0.003]","[-0.2, 0.346]","[-0.203, -0.347]","[0.07, 0.393]","[-0.378, -0.136]","[0.304, -0.26]","[0.306, 0.255]","[-0.377, 0.138]","[0.066, -0.395]",,8.650936579993868,16.83429167999566,27.834168179993867,"[0.42592592592592593, -0.3453703703703704, -0.2953703703703704]","[-0.019444444444444445, -0.14074074074074075, 0.08333333333333333]","[1, 1, 1]","[0, 0, 0]","[0, 0, 0]","[8.635761700003059, 16.818761900001846, 27.818346699998074]",0.014765579995582812,27.833042979997117,['A1'],['B2'],['C2'],['salmon'],['blue'],['yellow'],2338.4698382999995,None,8.0,2.463696599996183,2338.4698382999995,None,2341.286353699994,None,4.0,7.114893899997696,2348.1696767999965,None,10.0,3.965085999996518,2352.1195993,None,7.0,5.981692599998496,<function functionImportanceC at 0x000001CB281CD950>,<function functionImportanceB at 0x000001CB2339B2F0>,<function functionImportanceA at 0x000001CB2386AF28>,,,1.0,9.547640500000853,9.0,5.981692599998496,3.0,5.014022699993802,<function functiondiffA at 0x000001CB2339B730>,<function functiondiffC at 0x000001CB281CD488>,<function functiondiffB at 0x000001CB2386AD08>,,,,,2310.1798939999935,2366.8359694999963,None,2358.0692270999934,None,2363.202505299996,None,28,001,2022_Jul_20_1810,2leo,2021.2.3,59.98616718839323,
3,21,Plan your sandwich for lunch,Stimuli/21A1.jpg,Stimuli/21A2.jpg,Stimuli/21A3.jpg,Stimuli/21B1.jpg,Stimuli/21B2.jpg,Stimuli/21B3.jpg,Stimuli/21C1.jpg,Stimuli/21C2.jpg,Stimuli/21C3.jpg,,,,,0,24,24,21,,,,,,,,2375.886386899998,None,2376.885528599996,None,2382.8856579999992,None,"[0.07, 0.393]","[-0.378, -0.136]","[0.304, -0.26]","[0.306, 0.255]","[-0.377, 0.138]","[0.066, -0.395]","[0.399, -0.003]","[-0.2, 0.346]","[-0.203, -0.347]",,22.288257180000073,34.788406679996115,7.772531479997269,"[0.4074074074074074, -0.40555555555555556, -0.42314814814814816]","[-0.004629629629629629, -0.09907407407407408, 0.08055555555555556]","[1, 1, 1]","[0, 0, 0]","[0, 0, 0]","[7.761223500005144, 22.277430699999968, 34.777341400003934]",0.010290879996318836,34.787318880000385,['A2'],['B2'],['C1'],['salmon'],['yellow'],['blue'],2419.267596699996,None,9.0,3.696811699999671,2419.267596699996,None,2423.050990399999,None,10.0,3.9645726999951876,2427.0009561999977,None,5.0,8.99844529999973,2436.033932099999,None,7.0,4.1314658999981475,<function functionImportanceC at 0x000001CB281CD598>,<function functionImportanceB at 0x000001CB281CD0D0>,<function functionImportanceA at 0x000001CB2386A0D0>,,,5.0,7.380746099996031,0.0,4.1314658999981475,3.0,3.397976000000199,<function functiondiffB at 0x000001CB2386A400>,<function functiondiffC at 0x000001CB281CD9D8>,<function functiondiffA at 0x000001CB2339BA60>,,,,,2384.0056901999997,2440.150716099997,None,2451.017065299995,None,2447.533851999993,None,28,001,2022_Jul_20_1810,2leo,2021.2.3,59.98616718839323,
3,16,Plan a delicious cake for the birthday of a friend,Stimuli/16A1.jpg,Stimuli/16A2.jpg,Stimuli/16A3.jpg,Stimuli/16B1.jpg,Stimuli/16B2.jpg,Stimuli/16B3.jpg,Stimuli/16C1.jpg,Stimuli/16C2.jpg,Stimuli/16C3.jpg,,,,,0,25,25,16,,,,,,,,2453.9338014999958,None,2454.9335301999963,None,2460.9334781,None,"[0.304, -0.26]","[-0.378, -0.136]","[0.07, 0.393]","[0.066, -0.395]","[-0.377, 0.138]","[0.306, 0.255]","[-0.203, -0.347]","[-0.2, 0.346]","[0.399, -0.003]",,27.34153944999707,33.325136449995625,13.342611049993138,"[0.4638888888888889, -0.38055555555555554, 0.34814814814814815]","[-0.018518518518518517, -0.10555555555555556, 0.27314814814814814]","[1, 1, 1]","[0, 0, 0]","[0, 0, 0]","[13.331011900001613, 27.330534399996395, 33.31378810000024]",0.01050184999621706,33.32401944999583,['A2'],['B3'],['C3'],['blue'],['salmon'],['yellow'],2496.132391299994,None,6.0,3.2465341000061017,2496.132391299994,None,2505.7655855999983,None,5.0,4.181735599995591,2499.6657628999965,None,7.0,6.231169400001818,2509.8989083999986,None,9.0,2.5485344999979134,<function functionImportanceB at 0x000001CB281CDBF8>,<function functionImportanceC at 0x000001CB281CDEA0>,<function functionImportanceA at 0x000001CB281CD378>,,,6.0,7.0144064000051,2.0,2.5485344999979134,2.0,3.481189300000551,<function functiondiffB at 0x000001CB281CD840>,<function functiondiffC at 0x000001CB2386ABF8>,<function functiondiffA at 0x000001CB281CDE18>,,,,,2462.3497659999994,2512.4820339999933,None,2523.5984675999935,None,2519.482021399999,None,28,001,2022_Jul_20_1810,2leo,2021.2.3,59.98616718839323,
3,39,Plan what kind of watch you want to buy,Stimuli/39A1.jpg,Stimuli/39A2.jpg,Stimuli/39A3.jpg,Stimuli/39B1.jpg,Stimuli/39B2.jpg,Stimuli/39B3.jpg,Stimuli/39C1.jpg,Stimuli/39C2.jpg,Stimuli/39C3.jpg,,,,,0,26,26,39,,,,,,,,2526.5989720999933,None,2527.598092,None,2533.5982817999975,None,"[-0.377, 0.138]","[0.066, -0.395]","[0.306, 0.255]","[-0.2, 0.346]","[-0.203, -0.347]","[0.399, -0.003]","[-0.378, -0.136]","[0.304, -0.26]","[0.07, 0.393]",,43.83037579998927,11.39838489999238,47.564145499993174,"[-0.19907407407407407, -0.3787037037037037, -0.3074074074074074]","[-0.3425925925925926, 0.18796296296296297, -0.1574074074074074]","[1, 1, 1]","[0, 0, 0]","[0, 0, 0]","[11.382781300002534, 43.81511590000446, 47.54831970000669]",0.014842299991869368,47.56312049999542,['A1'],['B2'],['C1'],['yellow'],['blue'],['salmon'],2582.7800909999933,None,5.0,4.547174399995129,2582.7800909999933,None,2587.446527,None,0.0,3.664335100002063,2596.2299802999987,None,10.0,2.6817821000004187,2591.0801087,None,8.0,5.148549300000013,<function functionImportanceC at 0x000001CB281CDC80>,<function functionImportanceA at 0x000001CB281CD268>,<function functionImportanceB at 0x000001CB281CD510>,,,1.0,3.8308544000028633,8.0,5.148549300000013,8.0,11.380957900000794,<function functiondiffC at 0x000001CB281CDA60>,<function functiondiffA at 0x000001CB281CDF28>,<function functiondiffB at 0x000001CB281CD8C8>,,,,,2534.745956599996,2617.5461039,None,2606.1462804999974,None,2598.913203099997,None,28,001,2022_Jul_20_1810,2leo,2021.2.3,59.98616718839323,
3,35,Plan how you want to do your grocery shopping ,Stimuli/35A1.jpg,Stimuli/35A2.jpg,Stimuli/35A3.jpg,Stimuli/35B1.jpg,Stimuli/35B2.jpg,Stimuli/35B3.jpg,Stimuli/35C1.jpg,Stimuli/35C2.jpg,Stimuli/35C3.jpg,,,,,0,27,27,35,,,,,,,,2620.896131399997,None,2621.8957029999947,None,2627.8955254999964,None,"[0.066, -0.395]","[0.306, 0.255]","[-0.377, 0.138]","[0.304, -0.26]","[0.07, 0.393]","[-0.378, -0.136]","[-0.203, -0.347]","[0.399, -0.003]","[-0.2, 0.346]",,32.09877283000242,14.266296030000376,19.999888330006797,"[-0.3731481481481482, 0.36944444444444446, 0.030555555555555555]","[-0.16018518518518518, -0.008333333333333333, -0.3962962962962963]","[1, 1, 1]","[0, 0, 0]","[0, 0, 0]","[14.258410900001763, 19.99192149999726, 32.09133419999853]",0.006956930003070738,32.09818133000226,['A1'],['B3'],['C2'],['blue'],['salmon'],['yellow'],2661.6779618999935,None,8.0,2.696809500004747,2661.6779618999935,None,2664.4443998999996,None,8.0,9.49810210000578,2677.944281899996,None,5.0,4.998356900003273,2673.9611192999946,None,9.0,3.8983481000032043,<function functionImportanceC at 0x000001CB28924598>,<function functionImportanceA at 0x000001CB2386A488>,<function functionImportanceB at 0x000001CB28924048>,,,2.0,5.231021200001123,1.0,3.8983481000032043,3.0,5.1142098999989685,<function functiondiffA at 0x000001CB281CD158>,<function functiondiffB at 0x000001CB281CDD08>,<function functiondiffC at 0x000001CB2386A840>,,,,,2629.1026189999975,2688.010971099997,None,2682.8610854,None,2693.244028699999,None,28,001,2022_Jul_20_1810,2leo,2021.2.3,59.98616718839323,
3,24,Plan your Monday morning on a workday ,Stimuli/24A1.jpg,Stimuli/24A2.jpg,Stimuli/24A3.jpg,Stimuli/24B1.jpg,Stimuli/24B2.jpg,Stimuli/24B3.jpg,Stimuli/24C1.jpg,Stimuli/24C2.jpg,Stimuli/24C3.jpg,,,,,0,28,28,24,,,,,,,,2697.194533799993,None,2698.1938477000003,None,2704.1938131999996,None,"[0.399, -0.003]","[-0.2, 0.346]","[-0.203, -0.347]","[0.07, 0.393]","[-0.378, -0.136]","[0.304, -0.26]","[0.306, 0.255]","[-0.377, 0.138]","[0.066, -0.395]",,36.98503106999851,12.352660969998396,22.319389370000863,"[-0.42592592592592593, 0.28055555555555556, 0.43425925925925923]","[-0.16944444444444445, 0.22962962962962963, 0.011111111111111112]","[1, 1, 1]","[0, 0, 0]","[0, 0, 0]","[12.34297940000397, 22.309394000003522, 36.975696000001335]",0.008893470003386028,36.98449047000031,['A1'],['B2'],['C1'],['yellow'],['blue'],['salmon'],2742.7591848999946,None,6.0,3.030140199996822,2742.7591848999946,None,2756.3090333,None,6.0,3.56511390000378,2750.4924336999975,None,5.0,5.798158300000068,2745.8593810999955,None,9.0,4.61429529999441,<function functionImportanceA at 0x000001CB289247B8>,<function functionImportanceB at 0x000001CB289248C8>,<function functionImportanceC at 0x000001CB28924400>,,,1.0,4.431120599998394,1.0,4.61429529999441,9.0,7.697545200004242,<function functiondiffC at 0x000001CB28924510>,<function functiondiffA at 0x000001CB281CDAE8>,<function functiondiffB at 0x000001CB28924B70>,,,,,2705.298413599994,2772.058743499998,None,2764.3420830999967,None,2759.8590056999965,None,28,001,2022_Jul_20_1810,2leo,2021.2.3,59.98616718839323,
3,17,Plan a day in Barcelona with a friend who is new to the city,Stimuli/17A1.jpg,Stimuli/17A2.jpg,Stimuli/17A3.jpg,Stimuli/17B1.jpg,Stimuli/17B2.jpg,Stimuli/17B3.jpg,Stimuli/17C1.jpg,Stimuli/17C2.jpg,Stimuli/17C3.jpg,,,,,0,29,29,17,,,,,,,,2776.009522099994,None,2777.0249853999994,None,2783.025089099996,None,"[0.07, 0.393]","[-0.378, -0.136]","[0.304, -0.26]","[0.399, -0.003]","[-0.2, 0.346]","[-0.203, -0.347]","[0.306, 0.255]","[-0.377, 0.138]","[0.066, -0.395]",,30.601819789997535,6.436057389997586,18.518986390001373,"[-0.15555555555555556, -0.3138888888888889, -0.325]","[0.37407407407407406, 0.11203703703703703, -0.10277777777777777]","[1, 1, 1]","[0, 0, 0]","[0, 0, 0]","[6.426594999997178, 18.509259499995096, 30.592652699997416]",0.00866379000217421,30.600897889999032,['A2'],['B2'],['C2'],['blue'],['salmon'],['yellow'],2815.2407083999933,None,7.0,2.7637159999940195,2815.2407083999933,None,2818.0741229999985,None,8.0,2.964897199999541,2821.0574681999933,None,5.0,6.0649866000021575,2827.1739878999942,None,9.0,3.7317961000007926,<function functionImportanceC at 0x000001CB289249D8>,<function functionImportanceB at 0x000001CB28924730>,<function functionImportanceA at 0x000001CB289241E0>,,,1.0,6.881203200005984,3.0,3.7317961000007926,8.0,5.130850800000189,<function functiondiffB at 0x000001CB28924E18>,<function functiondiffC at 0x000001CB28924EA0>,<function functiondiffA at 0x000001CB28924378>,,,,,2784.163120999998,2830.8570918999976,None,2843.4235612999983,None,2837.7569028,None,28,001,2022_Jul_20_1810,2leo,2021.2.3,59.98616718839323,
3,23,Plan a city trip,Stimuli/23A1.jpg,Stimuli/23A2.jpg,Stimuli/23A3.jpg,Stimuli/23B1.jpg,Stimuli/23B2.jpg,Stimuli/23B3.jpg,Stimuli/23C1.jpg,Stimuli/23C2.jpg,Stimuli/23C3.jpg,,,,,0,30,30,23,,,,,,,,2854.7065188999986,None,2855.706620899997,None,2861.706452599996,None,"[0.066, -0.395]","[-0.377, 0.138]","[0.306, 0.255]","[-0.203, -0.347]","[-0.2, 0.346]","[0.399, -0.003]","[0.304, -0.26]","[-0.378, -0.136]","[0.07, 0.393]",,17.46601889000158,4.266859890005435,22.116561190006905,"[0.39444444444444443, -0.32037037037037036, -0.2953703703703704]","[0.04722222222222222, 0.0787037037037037, -0.14537037037037037]","[1, 1, 1]","[0, 0, 0]","[0, 0, 0]","[4.2585469000041485, 17.458074699999997, 22.10813350000535]",0.007433790007780772,22.11530259000574,['A2'],['B3'],['C2'],['yellow'],['blue'],['salmon'],2885.438926899995,None,4.0,3.397272399997746,2885.438926899995,None,2888.9389704999994,None,10.0,5.597393299998657,2897.038632099997,None,10.0,5.798008899997512,2894.505218099999,None,10.0,2.4988846000051126,<function functionImportanceC at 0x000001CB28924C80>,<function functionImportanceA at 0x000001CB28924A60>,<function functionImportanceB at 0x000001CB28924620>,,,7.0,4.96450239999831,1.0,2.4988846000051126,4.0,6.197807299999113,<function functiondiffC at 0x000001CB281CD730>,<function functiondiffB at 0x000001CB28924158>,<function functiondiffA at 0x000001CB28924D90>,,,,,2862.8467945999946,2907.605249299995,None,2912.588457399994,None,2902.821974899998,None,28,001,2022_Jul_20_1810,2leo,2021.2.3,59.98616718839323,
3,12,Plan the ingredients to mix yourself a cocktail,Stimuli/12A1.jpg,Stimuli/12A2.jpg,Stimuli/12A3.jpg,Stimuli/12B1.jpg,Stimuli/12B2.jpg,Stimuli/12B3.jpg,Stimuli/12C1.jpg,Stimuli/12C2.jpg,Stimuli/12C3.jpg,,,,,0,31,31,12,,,,,,,,2918.306063099997,None,2919.3212743999975,None,2925.3214747999955,None,"[-0.203, -0.347]","[0.399, -0.003]","[-0.2, 0.346]","[0.304, -0.26]","[0.07, 0.393]","[-0.378, -0.136]","[0.066, -0.395]","[0.306, 0.255]","[-0.377, 0.138]",,38.31018327999482,25.91079547999834,28.994288779998897,"[0.27870370370370373, 0.05277777777777778, -0.13518518518518519]","[-0.21574074074074073, -0.3648148148148148, 0.32222222222222224]","[1, 1, 1]","[0, 0, 0]","[0, 0, 0]","[25.905382500000997, 28.988509700000577, 38.30484550000256]",0.004704779996245634,38.30947277999803,['A3'],['B1'],['C1'],['yellow'],['salmon'],['blue'],2965.2368119999956,None,6.0,3.1469954999993206,2965.2368119999956,None,2978.219972699997,None,10.0,3.3483586000002106,2972.9368026999946,None,8.0,5.264835899994068,2968.470328699994,None,8.0,4.464496599997801,<function functionImportanceA at 0x000001CB2339BD90>,<function functionImportanceB at 0x000001CB28924950>,<function functionImportanceC at 0x000001CB28FC5840>,,,4.0,6.247247400002379,3.0,4.464496599997801,6.0,5.8311606999996,<function functiondiffA at 0x000001CB28924BF8>,<function functiondiffC at 0x000001CB28FC5378>,<function functiondiffB at 0x000001CB289240D0>,,,,,2926.446290599997,2994.3862894999984,None,2981.5532947999964,None,2987.403126099998,None,28,001,2022_Jul_20_1810,2leo,2021.2.3,59.98616718839323,
3,32,Plan how you want to relax after a workday,Stimuli/32A1.jpg,Stimuli/32A2.jpg,Stimuli/32A3.jpg,Stimuli/32B1.jpg,Stimuli/32B2.jpg,Stimuli/32B3.jpg,Stimuli/32C1.jpg,Stimuli/32C2.jpg,Stimuli/32C3.jpg,,,,,0,32,32,32,,,,,,,,3000.1540753999943,None,3001.1692298999988,None,3007.169192399997,None,"[0.304, -0.26]","[-0.378, -0.136]","[0.07, 0.393]","[0.066, -0.395]","[-0.377, 0.138]","[0.306, 0.255]","[-0.203, -0.347]","[-0.2, 0.346]","[0.399, -0.003]",,23.339788399993267,29.47315149998758,37.989936899990425,"[0.325, 0.12407407407407407]","[-0.2351851851851852, -0.37962962962962965]","[1, 1]","[0, 0]","[0, 0]","[23.32919939999556, 29.462277099999483]",0.010167199987336062,37.98868059999222,['A1'],['B1'],['C3'],['blue'],['salmon'],['yellow'],3048.601458199999,None,10.0,3.0972051999997348,3048.601458199999,None,3058.251146399998,None,7.0,4.931589699997858,3063.9845172999994,None,8.0,7.364845500000229,3052.8680232999977,None,8.0,6.464280899999721,<function functionImportanceA at 0x000001CB2386AEA0>,<function functionImportanceC at 0x000001CB281CDB70>,<function functionImportanceB at 0x000001CB2386A8C8>,,,3.0,5.998148599996057,4.0,6.464280899999721,2.0,7.230980400003318,<function functiondiffA at 0x000001CB2339BD08>,<function functiondiffB at 0x000001CB289242F0>,<function functiondiffC at 0x000001CB28924840>,,,,,3010.1551425999933,3077.984018999996,None,3070.900881399997,None,3083.8005459999986,None,28,001,2022_Jul_20_1810,2leo,2021.2.3,59.98616718839323,
3,6,Plan your wedding,Stimuli/6A1.jpg,Stimuli/6A2.jpg,Stimuli/6A3.jpg,Stimuli/6B1.jpg,Stimuli/6B2.jpg,Stimuli/6B3.jpg,Stimuli/6C1.jpg,Stimuli/6C2.jpg,Stimuli/6C3.jpg,,,,,0,33,33,6,,,,,,,,3088.9349363999936,None,3089.9502349999966,None,3095.950224,None,"[-0.377, 0.138]","[0.066, -0.395]","[0.306, 0.255]","[-0.378, -0.136]","[0.304, -0.26]","[0.07, 0.393]","[-0.2, 0.346]","[-0.203, -0.347]","[0.399, -0.003]",,35.487853729981,42.35320992997731,50.80351282997435,"[0.35, 0.325, 0.3925925925925926]","[0.2972222222222222, -0.32685185185185184, 0.020370370370370372]","[1, 1, 1]","[0, 0, 0]","[0, 0, 0]","[35.48120740000013, 42.346347500002594, 50.796372700002394]",0.006047129980288446,50.80211072997918,['A3'],['B2'],['C3'],['salmon'],['yellow'],['blue'],3152.398514499997,None,2.0,4.129706699997769,3152.398514499997,None,3161.9983353999996,None,7.0,7.631597800005693,3170.118034299994,None,6.0,4.847741999998107,3157.7668221999993,None,10.0,4.197831999998016,<function functionImportanceA at 0x000001CB28FC57B8>,<function functionImportanceC at 0x000001CB28FC5488>,<function functionImportanceB at 0x000001CB28FC59D8>,,,7.0,7.931360999995377,9.0,4.197831999998016,9.0,3.8815121999941766,<function functiondiffB at 0x000001CB289246A8>,<function functiondiffA at 0x000001CB281CD048>,<function functiondiffC at 0x000001CB28FC5BF8>,,,,,3101.136702699994,3173.6692893,None,3181.5313530999993,None,3185.5145688999983,None,28,001,2022_Jul_20_1810,2leo,2021.2.3,59.98616718839323,
3,13,Plan a romantic date this weekend,Stimuli/13A1.jpg,Stimuli/13A2.jpg,Stimuli/13A3.jpg,Stimuli/13B1.jpg,Stimuli/13B2.jpg,Stimuli/13B3.jpg,Stimuli/13C1.jpg,Stimuli/13C2.jpg,Stimuli/13C3.jpg,,,,,0,34,34,13,,,,,,,,3188.033190899994,None,3189.047625899999,None,3195.0479000999985,None,"[0.306, 0.255]","[0.066, -0.395]","[-0.377, 0.138]","[0.399, -0.003]","[-0.203, -0.347]","[-0.2, 0.346]","[0.07, 0.393]","[0.304, -0.26]","[-0.378, -0.136]",,42.71413254000072,35.916784640001424,24.582909739998286,"[-0.3472222222222222, -0.1648148148148148, -0.325]","[-0.10555555555555556, 0.3509259259259259, 0.11388888888888889]","[1, 1, 1]","[0, 0, 0]","[0, 0, 0]","[24.575460899999598, 35.90919069999654, 42.70716009999887]",0.006334439996862784,42.71331404000375,['A3'],['B3'],['C3'],['blue'],['yellow'],['salmon'],3239.4630349999934,None,8.0,3.130099000001792,3239.4630349999934,None,3242.713107399999,None,8.0,4.897862099998747,3247.6630436999985,None,6.0,4.631651100004092,3252.2629080999977,None,5.0,4.7317985000045155,<function functionImportanceC at 0x000001CB28FC5AE8>,<function functionImportanceB at 0x000001CB28FC5598>,<function functionImportanceA at 0x000001CB28FC5D90>,,,7.0,4.614573999999266,2.0,4.7317985000045155,5.0,5.2646633999975165,<function functiondiffC at 0x000001CB28FC5158>,<function functiondiffA at 0x000001CB28FC5620>,<function functiondiffB at 0x000001CB28FC5A60>,,,,,3196.2702853999945,3270.0791018999953,None,3264.7790947999965,None,3256.929322199998,None,28,001,2022_Jul_20_1810,2leo,2021.2.3,59.98616718839323,
3,4,Plan a game night at your place,Stimuli/4A1.jpg,Stimuli/4A2.jpg,Stimuli/4A3.jpg,Stimuli/4B1.jpg,Stimuli/4B2.jpg,Stimuli/4B3.jpg,Stimuli/4C1.jpg,Stimuli/4C2.jpg,Stimuli/4C3.jpg,,,,,0,35,35,4,,,,,,,,3274.1973718999943,None,3275.212195799999,None,3281.2120137999955,None,"[0.306, 0.255]","[0.066, -0.395]","[-0.377, 0.138]","[0.399, -0.003]","[-0.203, -0.347]","[-0.2, 0.346]","[0.07, 0.393]","[0.304, -0.26]","[-0.378, -0.136]",,31.20748162999371,10.191568529990036,40.94230872999469,"[0.36944444444444446, 0.24722222222222223, 0.08425925925925926]","[0.009259259259259259, 0.20277777777777778, 0.4351851851851852]","[1, 1, 1]","[0, 0, 0]","[0, 0, 0]","[10.18203089999588, 31.198231299997133, 40.93254089999391]",0.00883972999145044,40.93997282999044,['A1'],['B1'],['C1'],['salmon'],['blue'],['yellow'],3325.9940642,None,5.0,3.2623413000037544,3325.9940642,None,3330.5941083,None,6.0,6.597807799997099,3335.893994899998,None,7.0,6.815066399998614,3343.743859999995,None,5.0,9.181416899999022,<function functionImportanceC at 0x000001CB28FC51E0>,<function functionImportanceB at 0x000001CB28FC5950>,<function functionImportanceA at 0x000001CB28FC5510>,,,3.0,2.831144600000698,9.0,9.181416899999022,7.0,4.3475421000039205,<function functiondiffA at 0x000001CB281CD7B8>,<function functiondiffB at 0x000001CB2339B6A8>,<function functiondiffC at 0x000001CB2339B378>,,,,,3284.5810024999955,3356.2934936999955,None,3352.2432615999933,None,3359.476774799994,None,28,001,2022_Jul_20_1810,2leo,2021.2.3,59.98616718839323,
3,19,Plan how you want your garden to look like,Stimuli/19A1.jpg,Stimuli/19A2.jpg,Stimuli/19A3.jpg,Stimuli/19B1.jpg,Stimuli/19B2.jpg,Stimuli/19B3.jpg,Stimuli/19C1.jpg,Stimuli/19C2.jpg,Stimuli/19C3.jpg,,,,,0,36,36,19,,,,,,,,3364.4786333999946,None,3365.493099399995,None,3371.4929338999937,None,"[-0.377, 0.138]","[0.066, -0.395]","[0.306, 0.255]","[-0.2, 0.346]","[-0.203, -0.347]","[0.399, -0.003]","[-0.378, -0.136]","[0.304, -0.26]","[0.07, 0.393]",,37.39896019999287,30.03297049998946,8.883627499992144,"[-0.34074074074074073, 0.37222222222222223, -0.38425925925925924]","[-0.07037037037037037, -0.019444444444444445, 0.14537037037037037]","[1, 1, 1]","[0, 0, 0]","[0, 0, 0]","[8.870953899997403, 30.02035590000014, 37.38684690000082]",0.011683699987770524,37.398444999991625,['A1'],['B3'],['C1'],['salmon'],['blue'],['yellow'],3412.9916880999954,None,3.0,2.713609300000826,3412.9916880999954,None,3417.191847299997,None,6.0,6.714711900000111,3423.608638699996,None,8.0,4.531911500002025,3427.1082297999965,None,8.0,3.265227899995807,<function functionImportanceC at 0x000001CB28924AE8>,<function functionImportanceB at 0x000001CB28FC58C8>,<function functionImportanceA at 0x000001CB28FC5730>,,,8.0,2.832083599998441,2.0,3.265227899995807,8.0,4.964336600001843,<function functiondiffA at 0x000001CB28924D08>,<function functiondiffB at 0x000001CB28FC52F0>,<function functiondiffC at 0x000001CB28FC5E18>,,,,,3375.1383085999987,3435.524606699997,None,3430.3081762,None,3438.524750699995,None,28,001,2022_Jul_20_1810,2leo,2021.2.3,59.98616718839323,
3,38,Plan how you want to go for a run,Stimuli/38A1.jpg,Stimuli/38A2.jpg,Stimuli/38A3.jpg,Stimuli/38B1.jpg,Stimuli/38B2.jpg,Stimuli/38B3.jpg,Stimuli/38C1.jpg,Stimuli/38C2.jpg,Stimuli/38C3.jpg,,,,,0,37,37,38,,,,,,,,3440.776981899995,None,3441.790943,None,3447.7910530999943,None,"[-0.377, 0.138]","[0.066, -0.395]","[0.306, 0.255]","[-0.378, -0.136]","[0.304, -0.26]","[0.07, 0.393]","[-0.2, 0.346]","[-0.203, -0.347]","[0.399, -0.003]",,16.913771339997766,20.747100239997962,3.6975450399986585,"[-0.1287037037037037, 0.2537037037037037, -0.3314814814814815]","[0.27314814814814814, 0.23333333333333334, -0.08333333333333333]","[1, 1, 1]","[0, 0, 0]","[0, 0, 0]","[3.690885800002434, 16.90752970000176, 20.740743400005158]",0.0056388400043942966,20.746101040000212,['A3'],['B1'],['C1'],['salmon'],['blue'],['yellow'],3470.240349099993,None,9.0,2.8130146999974386,3470.240349099993,None,3482.206725099997,None,10.0,3.6647527999957674,3477.240396699999,None,8.0,4.84743349999917,3473.148773699999,None,9.0,4.064404400000058,<function functionImportanceA at 0x000001CB2386A048>,<function functionImportanceB at 0x000001CB2939D378>,<function functionImportanceC at 0x000001CB2939D400>,,,3.0,12.997748999994656,0.0,4.064404400000058,1.0,4.631382100000337,<function functiondiffB at 0x000001CB28FC5C80>,<function functiondiffC at 0x000001CB2939D6A8>,<function functiondiffA at 0x000001CB28FC5268>,,,,,3449.0150185999955,3485.7233634000004,None,3501.422895399999,None,3498.7562962999946,None,28,001,2022_Jul_20_1810,2leo,2021.2.3,59.98616718839323,
3,1,Plan how to study for an exam,Stimuli/1A1.jpg,Stimuli/1A2.jpg,Stimuli/1A3.jpg,Stimuli/1B1.jpg,Stimuli/1B2.jpg,Stimuli/1B3.jpg,Stimuli/1C1.jpg,Stimuli/1C2.jpg,Stimuli/1C3.jpg,,,,,0,38,38,1,,,,,,,,3505.575124099996,None,3506.5893429999996,None,3512.589468899998,None,"[-0.378, -0.136]","[0.304, -0.26]","[0.07, 0.393]","[-0.2, 0.346]","[-0.203, -0.347]","[0.399, -0.003]","[-0.377, 0.138]","[0.066, -0.395]","[0.306, 0.255]",,20.138820069994836,37.75542356999358,25.589166369994928,"[0.25833333333333336, -0.3435185185185185, 0.3398148148148148]","[-0.2712962962962963, 0.08796296296296297, -0.003703703703703704]","[1, 1, 1]","[0, 0, 0]","[0, 0, 0]","[20.135983000000124, 25.585951499997464, 37.75228849999985]",0.0022834699921077117,37.754318769992096,['A2'],['B3'],['C1'],['yellow'],['blue'],['salmon'],3551.938225699996,None,1.0,2.846587799998815,3551.938225699996,None,3563.5713978999993,None,8.0,3.198349899997993,3559.3882191999946,None,10.0,4.198195799996029,3554.8549147999947,None,10.0,4.514787300002354,<function functionImportanceA at 0x000001CB2939DF28>,<function functionImportanceB at 0x000001CB2939DEA0>,<function functionImportanceC at 0x000001CB2939D950>,,,8.0,3.331666899997799,3.0,4.514787300002354,2.0,5.331460800000059,<function functiondiffA at 0x000001CB281CD400>,<function functiondiffB at 0x000001CB2939DB70>,<function functiondiffC at 0x000001CB2939D8C8>,,,,,3513.7000936999975,3572.121177599998,None,3566.7880563,None,3575.487619899999,None,28,001,2022_Jul_20_1810,2leo,2021.2.3,59.98616718839323,
3,2,Plan which ingredients you want to use for cooking dinner today,Stimuli/2A1.jpg,Stimuli/2A2.jpg,Stimuli/2A3.jpg,Stimuli/2B1.jpg,Stimuli/2B2.jpg,Stimuli/2B3.jpg,Stimuli/2C1.jpg,Stimuli/2C2.jpg,Stimuli/2C3.jpg,,,,,0,39,39,2,,,,,,,,3579.2076530999984,None,3580.2206582,None,3586.2208967999977,None,"[-0.2, 0.346]","[-0.203, -0.347]","[0.399, -0.003]","[-0.377, 0.138]","[0.066, -0.395]","[0.306, 0.255]","[-0.378, -0.136]","[0.304, -0.26]","[0.07, 0.393]",,45.33904906996759,23.373261969965824,11.390709769970272,"[0.05555555555555555, 0.25277777777777777, -0.23148148148148148]","[0.42685185185185187, 0.28703703703703703, 0.36944444444444446]","[1, 1, 1]","[0, 0, 0]","[0, 0, 0]","[11.378215400000045, 23.360988499996893, 45.32726349999575]",0.011378869967302307,45.338408169969625,['A1'],['B3'],['C3'],['yellow'],['salmon'],['blue'],3638.085804299997,None,3.0,2.780252999997174,3638.085804299997,None,3641.5193310999966,None,9.0,5.630883599995286,3649.8203177999967,None,2.0,10.482125800001086,3658.1689692999935,None,7.0,5.498343399995065,<function functionImportanceC at 0x000001CB2939D268>,<function functionImportanceB at 0x000001CB2939D840>,<function functionImportanceA at 0x000001CB2939D510>,,,-0.0,5.714482100003806,0.0,5.498343399995065,8.0,7.214274599995406,<function functiondiffA at 0x000001CB28924268>,<function functiondiffB at 0x000001CB2939D730>,<function functiondiffC at 0x000001CB2939D2F0>,,,,,3592.2915813,3670.635267699996,None,3662.8687550999966,None,3675.7014847999963,None,28,001,2022_Jul_20_1810,2leo,2021.2.3,59.98616718839323,
3,41,Plan how you want to have dinner tonight ,Stimuli/41A1.jpg,Stimuli/41A2.jpg,Stimuli/41A3.jpg,Stimuli/41B1.jpg,Stimuli/41B2.jpg,Stimuli/41B3.jpg,Stimuli/41C1.jpg,Stimuli/41C2.jpg,Stimuli/41C3.jpg,,,,,0,40,40,41,,,,,,,,3680.1378186,None,3681.153243199995,None,3687.151556099998,None,"[-0.378, -0.136]","[0.304, -0.26]","[0.07, 0.393]","[-0.377, 0.138]","[0.066, -0.395]","[0.306, 0.255]","[-0.2, 0.346]","[-0.203, -0.347]","[0.399, -0.003]",,14.471525049993943,37.20476504999533,27.172050449997187,"[-0.3037037037037037, 0.36666666666666664, -0.3648148148148148]","[-0.075, 0.010185185185185186, 0.15833333333333333]","[1, 1, 1]","[0, 0, 0]","[0, 0, 0]","[14.462236699997447, 27.16217979999783, 37.19531409999763]",0.00872634999541333,37.20375824999792,['A1'],['B1'],['C3'],['yellow'],['salmon'],['blue'],3726.2336470999944,None,2.0,3.0966973999966285,3726.2336470999944,None,3742.749987199997,None,-0.0,2.9983382999998867,3729.4838575999966,None,7.0,7.03128629999992,3736.5000438999996,None,6.0,6.09866619999957,<function functionImportanceB at 0x000001CB28FC5D08>,<function functionImportanceA at 0x000001CB2939DE18>,<function functionImportanceC at 0x000001CB28FC5048>,,,4.0,5.080961199993908,7.0,6.09866619999957,3.0,10.963815999995859,<function functiondiffA at 0x000001CB28FC5400>,<function functiondiffB at 0x000001CB28FC5B70>,<function functiondiffC at 0x000001CB2939DD90>,,,,,3688.5548965999988,3756.533063499999,None,3745.549783399998,None,3761.6661284,None,28,001,2022_Jul_20_1810,2leo,2021.2.3,59.98616718839323,
3,27,Plan what festival to visit with your friends,Stimuli/27A1.jpg,Stimuli/27A2.jpg,Stimuli/27A3.jpg,Stimuli/27B1.jpg,Stimuli/27B2.jpg,Stimuli/27B3.jpg,Stimuli/27C1.jpg,Stimuli/27C2.jpg,Stimuli/27C3.jpg,,,,,0,41,41,27,,,,,,,,3767.5023105,None,3768.515956199997,None,3774.5160536999974,None,"[0.399, -0.003]","[-0.203, -0.347]","[-0.2, 0.346]","[0.07, 0.393]","[0.304, -0.26]","[-0.378, -0.136]","[0.306, 0.255]","[0.066, -0.395]","[-0.377, 0.138]",,6.585738790003234,13.952636089998123,22.436019090004265,"[0.4166666666666667, 0.10925925925925926, 0.09351851851851851]","[0.008333333333333333, 0.3888888888888889, -0.4287037037037037]","[1, 1, 1]","[0, 0, 0]","[0, 0, 0]","[6.576567399999476, 13.94318999999814, 22.42624909999722]",0.00872889000311261,22.434777890004625,['A1'],['B1'],['C2'],['blue'],['yellow'],['salmon'],3798.5651306999935,None,8.0,3.413541100002476,3798.5651306999935,None,3802.0486105999953,None,7.0,5.530819799998426,3807.5984006999934,None,8.0,6.115164299997559,3813.7148533,None,10.0,3.6485629999951925,<function functionImportanceC at 0x000001CB29FFE048>,<function functionImportanceB at 0x000001CB28FC5F28>,<function functionImportanceA at 0x000001CB2939D048>,,,2.0,4.247759199999564,2.0,3.6485629999951925,1.0,3.0978305999960867,<function functiondiffB at 0x000001CB2939DA60>,<function functiondiffA at 0x000001CB2939D598>,<function functiondiffC at 0x000001CB2939D9D8>,,,,,3775.653316199998,3817.3648332999946,None,3821.6312494999947,None,3824.7478705999965,None,28,001,2022_Jul_20_1810,2leo,2021.2.3,59.98616718839323,
3,11,Plan a hike in nature on a free day,Stimuli/11A1.jpg,Stimuli/11A2.jpg,Stimuli/11A3.jpg,Stimuli/11B1.jpg,Stimuli/11B2.jpg,Stimuli/11B3.jpg,Stimuli/11C1.jpg,Stimuli/11C2.jpg,Stimuli/11C3.jpg,,,,,0,42,42,11,,,,,,,,3827.9343685999993,None,3828.947539499997,None,3834.947666,None,"[0.304, -0.26]","[0.07, 0.393]","[-0.378, -0.136]","[0.066, -0.395]","[0.306, 0.255]","[-0.377, 0.138]","[-0.203, -0.347]","[0.399, -0.003]","[-0.2, 0.346]",,31.349663999993936,14.399886899991543,35.53285269999469,"[-0.3638888888888889, 0.2712962962962963, 0.44722222222222224]","[0.1388888888888889, -0.262037037037037, 0.04722222222222222]","[1, 1, 1]","[0, 0, 0]","[0, 0, 0]","[14.391784199993708, 31.342024499994295, 35.5245855999965]",0.007238199992571026,35.531585399992764,['A1'],['B3'],['C2'],['salmon'],['blue'],['yellow'],3872.1132306,None,7.0,3.413532699996722,3872.1132306,None,3875.596628499996,None,4.0,6.730763300001854,3885.5295486999967,None,9.0,3.781815899994399,3882.346253799995,None,8.0,3.1647899000017787,<function functionImportanceC at 0x000001CB29FFE730>,<function functionImportanceA at 0x000001CB29FFE158>,<function functionImportanceB at 0x000001CB29FFE1E0>,,,4.0,7.147869600004924,3.0,3.1647899000017787,7.0,7.530975500005297,<function functiondiffC at 0x000001CB29FFE9D8>,<function functiondiffA at 0x000001CB28FC56A8>,<function functiondiffB at 0x000001CB2939D1E0>,,,,,3836.1034736999936,3900.4457060999994,None,3892.8960496999935,None,3889.2960405999984,None,28,001,2022_Jul_20_1810,2leo,2021.2.3,59.98616718839323,
3,26,Plan how to wash one round of your laundry ,Stimuli/26A1.jpg,Stimuli/26A2.jpg,Stimuli/26A3.jpg,Stimuli/26B1.jpg,Stimuli/26B2.jpg,Stimuli/26B3.jpg,Stimuli/26C1.jpg,Stimuli/26C2.jpg,Stimuli/26C3.jpg,,,,,0,43,43,26,,,,,,,,3907.1157037999947,None,3908.1288905999972,None,3914.1289865,None,"[-0.203, -0.347]","[0.399, -0.003]","[-0.2, 0.346]","[0.066, -0.395]","[0.306, 0.255]","[-0.377, 0.138]","[0.304, -0.26]","[0.07, 0.393]","[-0.378, -0.136]",,30.59026329000335,16.94045639000251,22.773916589998407,"[-0.4324074074074074, 0.27314814814814814, 0.4111111111111111]","[0.06481481481481481, -0.25555555555555554, -0.022222222222222223]","[1, 1, 1]","[0, 0, 0]","[0, 0, 0]","[16.928393499998492, 22.761819999999716, 30.578594400001748]",0.011171589998411946,30.589308989998244,['A2'],['B3'],['C1'],['blue'],['yellow'],['salmon'],3946.327826099994,None,0.0,2.429969999997411,3946.327826099994,None,3948.8291680999973,None,-0.0,5.230938100001367,3964.194291,None,2.0,6.3980481999969925,3954.0610721999983,None,6.0,10.098389999999199,<function functionImportanceC at 0x000001CB29FFE378>,<function functionImportanceA at 0x000001CB29FFEBF8>,<function functionImportanceB at 0x000001CB29FFEAE8>,,,5.0,3.481842900000629,5.0,10.098389999999199,5.0,2.481202299997676,<function functiondiffC at 0x000001CB2939D488>,<function functiondiffB at 0x000001CB2939DC80>,<function functiondiffA at 0x000001CB2939DBF8>,,,,,3915.2641535999937,3976.3772783999957,None,3979.8771265999967,None,3970.577178599997,None,28,001,2022_Jul_20_1810,2leo,2021.2.3,59.98616718839323,
3,44,Plan a party at your place,Stimuli/44A1.jpg,Stimuli/44A2.jpg,Stimuli/44A3.jpg,Stimuli/44B1.jpg,Stimuli/44B2.jpg,Stimuli/44B3.jpg,Stimuli/44C1.jpg,Stimuli/44C2.jpg,Stimuli/44C3.jpg,,,,,0,44,44,44,,,,,,,,3981.8805350999974,None,3982.893591799999,None,3988.893468999995,None,"[0.07, 0.393]","[0.304, -0.26]","[-0.378, -0.136]","[0.399, -0.003]","[-0.203, -0.347]","[-0.2, 0.346]","[0.306, 0.255]","[0.066, -0.395]","[-0.377, 0.138]",,8.027740400000766,37.01366390000476,13.47814570000628,"[0.08425925925925926, 0.3509259259259259, -0.14074074074074075]","[0.412962962962963, 0.21203703703703702, 0.3]","[1, 1, 1]","[0, 0, 0]","[0, 0, 0]","[8.014303500000096, 13.46429419999913, 36.997842999997374]",0.012899900000775233,37.01035320000665,['A1'],['B3'],['C1'],['yellow'],['blue'],['salmon'],4027.5590214999975,None,7.0,3.1452063000033377,4027.5590214999975,None,4035.2755787999995,None,5.0,4.831432400002086,4040.1256136999946,None,9.0,3.815001700000721,4030.7425046999997,None,8.0,4.497821600001771,<function functionImportanceA at 0x000001CB29FFE8C8>,<function functionImportanceC at 0x000001CB29FFED90>,<function functionImportanceB at 0x000001CB29FFE6A8>,,,10.0,4.414504000000306,3.0,4.497821600001771,-0.0,3.5976421000013943,<function functiondiffA at 0x000001CB28FC5EA0>,<function functiondiffC at 0x000001CB2939D0D0>,<function functiondiffB at 0x000001CB29FFEEA0>,,,,,3990.0443178999994,4051.358729199994,None,4043.9255739,None,4047.5421378999963,None,28,001,2022_Jul_20_1810,2leo,2021.2.3,59.98616718839323,
