Condition,N_Scenario,written_scenario,ImageA1,ImageA2,ImageA3,ImageB1,ImageB2,ImageB3,ImageC1,ImageC2,ImageC3,trials_2.thisRepN,trials_2.thisTrialN,trials_2.thisN,trials_2.thisIndex,trial.thisRepN,trial.thisTrialN,trial.thisN,trial.thisIndex,button_2.started,button_2.stopped,button_2.numClicks,button_2.timesOn,button_2.timesOff,text.started,text.stopped,fixationcross1_started,fixationcross1_stopped,Scenario_started,Scenario_stopped,fixationcross2_started,fixationcross2_stopped,A1pos,A2pos,A3pos,B1pos,B2pos,B3pos,C1pos,C2pos,C3pos,﻿Imagesdecision_started,decisiontimeA,decisiontimeB,decisiontimeC,mouse_x,mouse_y,mouse_leftButton,mouse_midButton,mouse_rightButton,mouse_time,mouse_started,mouse_stopped,clicked_optionA,clicked_optionB,clicked_optionC,colour_category_A,colour_category_B,colour_category_C,question_confidence_started,question_confidence_stopped,slider_confidence_response,slider_confidence_rt,slider_confidence_started,slider_confidence_stopped,question_valueA_started,question_valueA_stopped,slider_valueA_response,slider_valueA_rt,question_valueB_started,question_valueB_stopped,slider_valueB_response,slider_valueB_rt,question_valueC_started,question_valueC_stopped,slider_valueC_response,slider_valueC_rt,Importance_First,Importance_Second,Importance_Third,question_diff_started,question_diff_stopped,slider_diffA_response,slider_diffA_rt,slider_diffC_response,slider_diffC_rt,slider_diffB_response,slider_diffB_rt,diff_First,diff_Second,diff_Third,button_3_started,button_3_stopped,text_2_started,text_2_stopped,Imagesdecision_started,question_diffB_started,question_diffB_stopped,question_diffC_started,question_diffC_stopped,question_diffA_started,question_diffA_stopped,participant,session,date,expName,psychopyVersion,frameRate,
3,2,Plan a party to celebrate your birthday,Stimuli/2A1t.jpg,Stimuli/2A2t.jpg,Stimuli/2A3t.jpg,Stimuli/2B1t.jpg,Stimuli/2B2t.jpg,Stimuli/2B3t.jpg,Stimuli/2C1t.jpg,Stimuli/2C2t.jpg,Stimuli/2C3t.jpg,0,0,0,0,,,,,21.753020100000867,None,1,[4.614181599999938],[4.614185500000531],21.753020100000867,None,75.66333640000084,None,76.67279419999977,None,82.6729604000011,None,"[0.399, -0.003]","[-0.2, 0.346]","[-0.203, -0.347]","[0.07, 0.393]","[-0.378, -0.136]","[0.304, -0.26]","[0.306, 0.255]","[-0.377, 0.138]","[0.066, -0.395]",86.65811630000098,6.469997220006917,3.7371548200062534,10.454246920005971,"[0.049074074074074076, 0.3648148148148148, 0.03611111111111111]","[0.34074074074074073, -0.011111111111111112, -0.37592592592592594]","[1, 1, 1]","[0, 0, 0]","[0, 0, 0]","[3.727397899998323, 6.460513299998638, 10.443948000000091]",0.00905842000611301,10.452803920006772,['A1'],['B1'],['C3'],['yellow'],['blue'],['salmon'],97.57205070000055,None,9.0,3.729479999999967,97.57205070000055,None,102.65714630000002,None,8.0,12.81400399999984,115.77174449999984,None,10.0,6.0480496999989555,120.28839970000081,None,8.0,2.598212099999728,<function functionImportanceAt at 0x0000017AF26DFA60>,<function functionImportanceBt at 0x0000017AF26DFD90>,<function functionImportanceCt at 0x0000017AE3101E18>,134.55476220000128,None,1.0,12.81400399999984,4.0,5.13161030000083,0.0,6.214644499999849,<function functiondiffAt at 0x0000017A83F40C80>,<function functiondiffCt at 0x0000017A83F40AE8>,<function functiondiffBt at 0x0000017A83F40D08>,,,,,,,,,,,,11,001,2022_Jul_12_1224,2leo,2021.2.3,60.01219447820375,
3,3,Plan one week of vacation,Stimuli/3A1t.jpg,Stimuli/3A2t.jpg,Stimuli/3A3t.jpg,Stimuli/3B1t.jpg,Stimuli/3B2t.jpg,Stimuli/3B3t.jpg,Stimuli/3C1t.jpg,Stimuli/3C2t.jpg,Stimuli/3C3t.jpg,0,1,1,1,,,,,,,,,,,,139.83800350000092,None,140.8380027000003,None,146.8377797000012,None,"[-0.203, -0.347]","[-0.2, 0.346]","[0.399, -0.003]","[0.066, -0.395]","[-0.377, 0.138]","[0.306, 0.255]","[0.304, -0.26]","[-0.378, -0.136]","[0.07, 0.393]",153.00014230000124,7.112954660015021,15.779707460014833,11.113652060015738,"[-0.17037037037037037, 0.0787037037037037, -0.3509259259259259]","[0.35462962962962963, 0.3638888888888889, 0.10277777777777777]","[1, 1, 1]","[0, 0, 0]","[0, 0, 0]","[7.1031742000013764, 11.10325820000071, 15.769614900000306]",0.008895660015696194,15.778712660014207,['A2'],['B2'],['C3'],['salmon'],['blue'],['yellow'],169.2369744000007,None,9.0,3.7803943999988405,169.2369744000007,None,182.93672309999965,None,9.0,6.398378300000331,174.80375520000052,None,3.0,7.897748800000045,188.89001980000103,None,10.0,4.531804399999601,<function functionImportanceBt at 0x0000017AF26DFBF8>,<function functionImportanceAt at 0x0000017AF26DFE18>,<function functionImportanceCt at 0x0000017ADFF931E0>,201.16957170000023,None,2.0,6.398378300000331,0.0,2.381109699999797,8.0,5.34759369999847,<function functiondiffBt at 0x0000017A83F40BF8>,<function functiondiffAt at 0x0000017A83F40EA0>,<function functiondiffCt at 0x0000017A83F40D90>,,,,,,,,,,,,11,001,2022_Jul_12_1224,2leo,2021.2.3,60.01219447820375,
3,31,Plan your order at a restaurant    ,Stimuli/31A1.jpg,Stimuli/31A2.jpg,Stimuli/31A3.jpg,Stimuli/31B1.jpg,Stimuli/31B2.jpg,Stimuli/31B3.jpg,Stimuli/31C1.jpg,Stimuli/31C2.jpg,Stimuli/31C3.jpg,,,,,0,0,0,31,,,,,,,,272.1786382999999,None,273.16767849999997,None,279.1675316000001,None,"[-0.377, 0.138]","[0.306, 0.255]","[0.066, -0.395]","[-0.2, 0.346]","[0.399, -0.003]","[-0.203, -0.347]","[-0.378, -0.136]","[0.07, 0.393]","[0.304, -0.26]",,8.876654280005823,12.727072680005222,14.910626980004963,"[-0.38055555555555554, 0.425, 0.020370370370370372]","[0.125, 0.011111111111111112, 0.4111111111111111]","[1, 1, 1]","[0, 0, 0]","[0, 0, 0]","[8.870852800000648, 12.720915900001273, 14.904239000001326]",0.005359480004699435,14.909282180005903,['A1'],['B2'],['C2'],['blue'],['yellow'],['salmon'],297.20016170000054,None,9.0,3.1960971999997128,297.20016170000054,None,301.9525429000005,None,-0.0,5.397098699999333,305.933487100001,None,8.0,3.181797400000505,309.15014110000084,None,10.0,2.048127999998542,<function functionImportanceA at 0x0000017AF26DF9D8>,<function functionImportanceB at 0x0000017A83F40F28>,<function functionImportanceC at 0x0000017AF084EEA0>,,,8.0,2.0642876000001706,0.0,5.397098699999333,2.0,5.897384399999282,<function functiondiffB at 0x0000017A83F40E18>,<function functiondiffC at 0x0000017A83F40730>,<function functiondiffA at 0x0000017A83F406A8>,202.63609410000026,None,202.63609410000026,None,281.82991330000004,311.1166616999999,None,317.0332077000003,None,319.79982890000065,None,11,001,2022_Jul_12_1224,2leo,2021.2.3,60.01219447820375,
3,18,Plan your Saturday night ,Stimuli/18A1.jpg,Stimuli/18A2.jpg,Stimuli/18A3.jpg,Stimuli/18B1.jpg,Stimuli/18B2.jpg,Stimuli/18B3.jpg,Stimuli/18C1.jpg,Stimuli/18C2.jpg,Stimuli/18C3.jpg,,,,,0,1,1,18,,,,,,,,321.0330092000004,None,322.03313010000056,None,328.0329367000013,None,"[-0.203, -0.347]","[0.399, -0.003]","[-0.2, 0.346]","[0.066, -0.395]","[0.306, 0.255]","[-0.377, 0.138]","[0.304, -0.26]","[0.07, 0.393]","[-0.378, -0.136]",,19.305898120001075,4.0730608200010465,12.156732720000946,"[0.2777777777777778, -0.32592592592592595, -0.1814814814814815]","[0.24166666666666667, -0.15185185185185185, -0.3101851851851852]","[1, 1, 1]","[0, 0, 0]","[0, 0, 0]","[4.060400799999115, 12.143708299998252, 19.293577699998423]",0.011902520001967787,19.30520362000061,['A1'],['B2'],['C3'],['salmon'],['blue'],['yellow'],348.91561940000065,None,10.0,1.4967912000010983,348.91561940000065,None,350.51546510000117,None,10.0,5.397789299999204,358.4987524999997,None,10.0,1.9485253999991983,355.89861250000104,None,7.0,2.615141799999037,<function functionImportanceA at 0x0000017A83F40598>,<function functionImportanceC at 0x0000017A84071730>,<function functionImportanceB at 0x0000017A84071D08>,,,1.0,3.3474702999992587,3.0,5.397789299999204,-0.0,1.6310090999995737,<function functiondiffA at 0x0000017A83F40378>,<function functiondiffC at 0x0000017A840718C8>,<function functiondiffB at 0x0000017A83F40620>,,,,,329.13807110000016,367.9985367999998,None,363.83203500000127,None,360.4654472000002,None,11,001,2022_Jul_12_1224,2leo,2021.2.3,60.01219447820375,
3,39,Plan what kind of watch you want to buy,Stimuli/39A1.jpg,Stimuli/39A2.jpg,Stimuli/39A3.jpg,Stimuli/39B1.jpg,Stimuli/39B2.jpg,Stimuli/39B3.jpg,Stimuli/39C1.jpg,Stimuli/39C2.jpg,Stimuli/39C3.jpg,,,,,0,2,2,39,,,,,,,,369.1650045000006,None,370.1649613999998,None,376.1650922000008,None,"[-0.377, 0.138]","[0.066, -0.395]","[0.306, 0.255]","[-0.2, 0.346]","[-0.203, -0.347]","[0.399, -0.003]","[-0.378, -0.136]","[0.304, -0.26]","[0.07, 0.393]",,17.067013039999438,7.267170339999211,23.73418024000057,"[-0.15462962962962962, 0.04537037037037037, -0.40185185185185185]","[0.375, -0.4, -0.16018518518518518]","[1, 1, 1]","[0, 0, 0]","[0, 0, 0]","[7.273873999998614, 17.05734179999854, 23.724079300000085]",0.009174139999231556,23.732785439999134,['A2'],['B1'],['C1'],['blue'],['yellow'],['salmon'],401.51420700000017,None,7.0,2.6797833000000537,401.51420700000017,None,404.26432340000065,None,3.0,5.298137099998712,409.56412210000053,None,9.0,2.1315319999994244,411.78082170000016,None,0.0,2.6650912999994034,<function functionImportanceA at 0x0000017A84071950>,<function functionImportanceB at 0x0000017A84071268>,<function functionImportanceC at 0x0000017A84071488>,,,7.0,2.731085000001258,8.0,5.298137099998712,-0.0,1.6980530000000726,<function functiondiffC at 0x0000017A840717B8>,<function functiondiffA at 0x0000017AEFA7AE18>,<function functiondiffB at 0x0000017A84071AE8>,,,,,377.3059570000005,420.1804566999999,None,414.38075539999954,None,417.43067450000126,None,11,001,2022_Jul_12_1224,2leo,2021.2.3,60.01219447820375,
3,16,Plan a delicious cake for the birthday of a friend,Stimuli/16A1.jpg,Stimuli/16A2.jpg,Stimuli/16A3.jpg,Stimuli/16B1.jpg,Stimuli/16B2.jpg,Stimuli/16B3.jpg,Stimuli/16C1.jpg,Stimuli/16C2.jpg,Stimuli/16C3.jpg,,,,,0,3,3,16,,,,,,,,421.3970186000006,None,422.3969964000007,None,428.3968960000002,None,"[-0.377, 0.138]","[0.066, -0.395]","[0.306, 0.255]","[-0.2, 0.346]","[-0.203, -0.347]","[0.399, -0.003]","[-0.378, -0.136]","[0.304, -0.26]","[0.07, 0.393]",,18.041402999999264,6.7916323999997985,12.35876830000052,"[-0.17592592592592593, 0.03425925925925926, 0.07592592592592592]","[0.32037037037037036, 0.36018518518518516, -0.37037037037037035]","[1, 1, 1]","[0, 0, 0]","[0, 0, 0]","[6.77635299999929, 12.342944800000623, 18.02627070000017]",0.014564600000085193,18.040543600000092,['A2'],['B1'],['C3'],['blue'],['yellow'],['salmon'],448.3128701000005,None,7.0,2.613572500000373,448.3128701000005,None,455.3630056000002,None,8.0,3.2982095000006666,451.2131362,None,10.0,4.347860899999432,458.74617840000064,None,3.0,2.7150805999990553,<function functionImportanceB at 0x0000017A83F400D0>,<function functionImportanceA at 0x0000017A84071840>,<function functionImportanceC at 0x0000017A845A7510>,,,2.0,2.0978771000009147,8.0,3.2982095000006666,2.0,2.997883999998521,<function functiondiffB at 0x0000017A84071048>,<function functiondiffC at 0x0000017A83F40268>,<function functiondiffA at 0x0000017A84071E18>,,,,,429.8027968999995,461.4295321999998,None,464.41259569999966,None,466.8789615000005,None,11,001,2022_Jul_12_1224,2leo,2021.2.3,60.01219447820375,
3,25,Plan how you want to read a book in your free time ,Stimuli/25A1.jpg,Stimuli/25A2.jpg,Stimuli/25A3.jpg,Stimuli/25B1.jpg,Stimuli/25B2.jpg,Stimuli/25B3.jpg,Stimuli/25C1.jpg,Stimuli/25C2.jpg,Stimuli/25C3.jpg,,,,,0,4,4,25,,,,,,,,468.4957419000002,None,469.4958029999998,None,475.49577169999975,None,"[0.304, -0.26]","[-0.378, -0.136]","[0.07, 0.393]","[-0.203, -0.347]","[-0.2, 0.346]","[0.399, -0.003]","[0.066, -0.395]","[-0.377, 0.138]","[0.306, 0.255]",,13.897780980001698,6.3304666800013365,18.03061178000098,"[-0.20462962962962963, 0.3638888888888889, 0.30925925925925923]","[-0.3435185185185185, -0.262037037037037, 0.2611111111111111]","[1, 1, 1]","[0, 0, 0]","[0, 0, 0]","[6.320477600000231, 13.888149800000974, 18.020288400000936]",0.009233580001819064,18.029310580001038,['A1'],['B1'],['C3'],['salmon'],['yellow'],['blue'],495.4616564000007,None,10.0,1.8968229000001884,495.4616564000007,None,503.86157470000035,None,8.0,1.8986316999998962,497.4616270000006,None,10.0,3.4808327999999165,501.2450196000009,None,10.0,2.9147984999999608,<function functionImportanceB at 0x0000017A83F40488>,<function functionImportanceC at 0x0000017A840710D0>,<function functionImportanceA at 0x0000017A83F40510>,,,2.0,2.964306600000782,8.0,1.8986316999998962,0.0,2.0145904000000883,<function functiondiffC at 0x0000017AF04119D8>,<function functiondiffB at 0x0000017A840719D8>,<function functiondiffA at 0x0000017AEF9FEF28>,,,,,476.9695198999998,511.42815130000054,None,505.8283037000001,None,513.4281005000012,None,11,001,2022_Jul_12_1224,2leo,2021.2.3,60.01219447820375,
3,15,Plan your own Pasta for lunch,Stimuli/15A1.jpg,Stimuli/15A2.jpg,Stimuli/15A3.jpg,Stimuli/15B1.jpg,Stimuli/15B2.jpg,Stimuli/15B3.jpg,Stimuli/15C1.jpg,Stimuli/15C2.jpg,Stimuli/15C3.jpg,,,,,0,5,5,15,,,,,,,,515.9279236000002,None,516.9280018999998,None,522.9277791000004,None,"[0.399, -0.003]","[-0.203, -0.347]","[-0.2, 0.346]","[0.07, 0.393]","[0.304, -0.26]","[-0.378, -0.136]","[0.306, 0.255]","[0.066, -0.395]","[-0.377, 0.138]",,16.122489340003085,11.52271094000389,6.523519240003225,"[-0.40925925925925927, 0.3055555555555556, 0.43333333333333335]","[0.16111111111111112, -0.24351851851851852, -0.03425925925925926]","[1, 1, 1]","[0, 0, 0]","[0, 0, 0]","[6.506305099999736, 11.505823999999848, 16.105971999999383]",0.016113440002300194,16.121821640002963,['A1'],['B2'],['C3'],['yellow'],['blue'],['salmon'],541.4103341999999,None,10.0,2.3138842999996996,541.4103341999999,None,546.6436959000002,None,7.0,3.2983649999987392,543.7771924000008,None,10.0,2.7647153999987495,550.6103751999999,None,10.0,2.681884000001446,<function functionImportanceB at 0x0000017A845A7D08>,<function functionImportanceA at 0x0000017A83F40840>,<function functionImportanceC at 0x0000017A845A76A8>,,,7.0,3.2971622999993997,0.0,3.2983649999987392,-0.0,3.8479407999984687,<function functiondiffA at 0x0000017A84071BF8>,<function functiondiffB at 0x0000017A84071EA0>,<function functiondiffC at 0x0000017A84071B70>,,,,,524.8346515000012,555.8769351999999,None,559.8934535999997,None,552.5770205999997,None,11,001,2022_Jul_12_1224,2leo,2021.2.3,60.01219447820375,
3,7,Plan your Sunday breakfast ,Stimuli/7A1.jpg,Stimuli/7A2.jpg,Stimuli/7A3.jpg,Stimuli/7B1.jpg,Stimuli/7B2.jpg,Stimuli/7B3.jpg,Stimuli/7C1.jpg,Stimuli/7C2.jpg,Stimuli/7C3.jpg,,,,,0,6,6,7,,,,,,,,561.6100220000008,None,562.609993600001,None,568.6099243999997,None,"[0.07, 0.393]","[0.304, -0.26]","[-0.378, -0.136]","[0.306, 0.255]","[0.066, -0.395]","[-0.377, 0.138]","[0.399, -0.003]","[-0.203, -0.347]","[-0.2, 0.346]",,5.115061720012818,10.66507292001188,12.765415320012835,"[-0.3509259259259259, 0.3101851851851852, 0.4046296296296296]","[-0.08333333333333333, 0.2638888888888889, -0.001851851851851852]","[1, 1, 1]","[0, 0, 0]","[0, 0, 0]","[5.113803399999597, 10.66371269999945, 12.76371349999863]",0.0006248200133995852,12.764301420012998,['A3'],['B1'],['C1'],['yellow'],['salmon'],['blue'],587.8590784000007,None,9.0,2.69623700000011,587.8590784000007,None,599.0591249999998,None,9.0,4.232041299999764,603.4587288000002,None,9.0,3.548177600001509,591.8589872000011,None,1.0,6.664686899999651,<function functionImportanceC at 0x0000017A845A70D0>,<function functionImportanceA at 0x0000017A845A7B70>,<function functionImportanceB at 0x0000017A845A7BF8>,,,-0.0,2.897940800001379,0.0,4.232041299999764,3.0,4.147670899999866,<function functiondiffB at 0x0000017A845A7D90>,<function functiondiffA at 0x0000017A845A79D8>,<function functiondiffC at 0x0000017A845A7A60>,,,,,574.6333807999999,605.7923346000007,None,612.5255022000001,None,609.7753626000012,None,11,001,2022_Jul_12_1224,2leo,2021.2.3,60.01219447820375,
3,5,Plan a birthday party for your younger self when you turn eight,Stimuli/5A1.jpg,Stimuli/5A2.jpg,Stimuli/5A3.jpg,Stimuli/5B1.jpg,Stimuli/5B2.jpg,Stimuli/5B3.jpg,Stimuli/5C1.jpg,Stimuli/5C2.jpg,Stimuli/5C3.jpg,,,,,0,7,7,5,,,,,,,,614.3418152000013,None,615.3420523000004,None,621.3418421999995,None,"[-0.378, -0.136]","[0.304, -0.26]","[0.07, 0.393]","[-0.2, 0.346]","[-0.203, -0.347]","[0.399, -0.003]","[-0.377, 0.138]","[0.066, -0.395]","[0.306, 0.255]",,23.165832680015228,15.116143480016035,9.949925080016328,"[-0.375, -0.19444444444444445, 0.06666666666666667]","[0.11574074074074074, -0.3148148148148148, 0.33240740740740743]","[1, 1, 1]","[0, 0, 0]","[0, 0, 0]","[9.947996999999305, 15.114379099999496, 23.164256500000192]",0.0009472800156800076,23.16502378001678,['A3'],['B2'],['C1'],['salmon'],['blue'],['yellow'],650.9242295000004,None,8.0,2.0799760000008973,650.9242295000004,None,655.7075455000013,None,3.0,12.781354600001578,667.4912951000006,None,1.0,5.064743199998702,671.623708000001,None,10.0,3.064830199999051,<function functionImportanceA at 0x0000017A840716A8>,<function functionImportanceB at 0x0000017A845A7048>,<function functionImportanceC at 0x0000017A845A7C80>,,,8.0,2.9979885000011564,-0.0,12.781354600001578,2.0,3.380653499998516,<function functiondiffC at 0x0000017A845A7F28>,<function functiondiffB at 0x0000017A845A7158>,<function functiondiffA at 0x0000017A845A7378>,,,,,627.2968553999999,678.0071456000005,None,674.1237921000011,None,681.8238486999999,None,11,001,2022_Jul_12_1224,2leo,2021.2.3,60.01219447820375,
3,4,Plan a game night at your place,Stimuli/4A1.jpg,Stimuli/4A2.jpg,Stimuli/4A3.jpg,Stimuli/4B1.jpg,Stimuli/4B2.jpg,Stimuli/4B3.jpg,Stimuli/4C1.jpg,Stimuli/4C2.jpg,Stimuli/4C3.jpg,,,,,0,8,8,4,,,,,,,,683.5899645999998,None,684.5902323999999,None,690.5900715000007,None,"[0.304, -0.26]","[0.07, 0.393]","[-0.378, -0.136]","[-0.203, -0.347]","[0.399, -0.003]","[-0.2, 0.346]","[0.066, -0.395]","[0.306, 0.255]","[-0.377, 0.138]",,12.566121620006015,6.299976720005361,20.316024520005158,"[-0.2101851851851852, -0.3333333333333333, 0.32314814814814813]","[0.32592592592592595, -0.0962962962962963, 0.21944444444444444]","[1, 1, 1]","[0, 0, 0]","[0, 0, 0]","[6.294383700000253, 12.560716899999534, 20.310258199999225]",0.004488420005145599,20.31485292000616,['A3'],['B3'],['C2'],['blue'],['salmon'],['yellow'],714.855953100001,None,9.0,2.147231400000237,714.855953100001,None,722.0558418,None,8.0,3.465438000001086,724.4722063999998,None,10.0,2.615309199998592,718.3891390000008,None,10.0,3.8809591000008368,<function functionImportanceC at 0x0000017A84861840>,<function functionImportanceA at 0x0000017A845A7400>,<function functionImportanceB at 0x0000017A84071A60>,,,2.0,2.347701299999244,1.0,3.465438000001086,8.0,3.08102179999878,<function functiondiffC at 0x0000017A845A7598>,<function functiondiffA at 0x0000017A845A77B8>,<function functiondiffB at 0x0000017A845A72F0>,,,,,694.083402100001,733.4555576000002,None,727.4055989000008,None,731.3888401000004,None,11,001,2022_Jul_12_1224,2leo,2021.2.3,60.01219447820375,
3,9,Plan a picnic with friends,Stimuli/9A1.jpg,Stimuli/9A2.jpg,Stimuli/9A3.jpg,Stimuli/9B1.jpg,Stimuli/9B2.jpg,Stimuli/9B3.jpg,Stimuli/9C1.jpg,Stimuli/9C2.jpg,Stimuli/9C3.jpg,,,,,0,9,9,9,,,,,,,,736.0552640000005,None,737.0555237999997,None,743.0554711000004,None,"[0.306, 0.255]","[-0.377, 0.138]","[0.066, -0.395]","[0.07, 0.393]","[-0.378, -0.136]","[0.304, -0.26]","[0.399, -0.003]","[-0.2, 0.346]","[-0.203, -0.347]",,10.442722140012847,17.976092940012677,5.360051840014421,"[-0.18981481481481483, 0.27685185185185185, -0.3851851851851852]","[0.38796296296296295, 0.2212962962962963, -0.1648148148148148]","[1, 1, 1]","[0, 0, 0]","[0, 0, 0]","[5.3557752999986405, 10.43903759999921, 17.97205589999976]",0.003276440012996318,17.975092440014123,['A1'],['B2'],['C2'],['salmon'],['yellow'],['blue'],766.9545560999995,None,9.0,2.3138214999999036,766.9545560999995,None,778.3208766000007,None,10.0,4.948429199999737,782.9874493999996,None,10.0,3.3985548000000563,770.8379003999999,None,1.0,7.414237900000444,<function functionImportanceC at 0x0000017A848611E0>,<function functionImportanceA at 0x0000017A845A7E18>,<function functionImportanceB at 0x0000017A84861488>,,,0.0,2.41466919999948,1.0,4.948429199999737,7.0,3.1645642000003136,<function functiondiffC at 0x0000017A84861950>,<function functiondiffB at 0x0000017A845A7268>,<function functiondiffA at 0x0000017A845A78C8>,,,,,748.5158850999997,789.1372889000013,None,785.5881043999998,None,792.4207115999998,None,11,001,2022_Jul_12_1224,2leo,2021.2.3,60.01219447820375,
3,42,Plan how to draw a painting ,Stimuli/42A1.jpg,Stimuli/42A2.jpg,Stimuli/42A3.jpg,Stimuli/42B1.jpg,Stimuli/42B2.jpg,Stimuli/42B3.jpg,Stimuli/42C1.jpg,Stimuli/42C2.jpg,Stimuli/42C3.jpg,,,,,0,10,10,42,,,,,,,,793.8871856000005,None,794.8872701,None,800.8872637000004,None,"[-0.203, -0.347]","[0.399, -0.003]","[-0.2, 0.346]","[0.066, -0.395]","[0.306, 0.255]","[-0.377, 0.138]","[0.304, -0.26]","[0.07, 0.393]","[-0.378, -0.136]",,7.42843424000057,13.195138340000995,17.84549123999932,"[-0.20833333333333334, 0.07962962962962963, -0.37592592592592594]","[0.3212962962962963, -0.37037037037037035, -0.1398148148148148]","[1, 1, 1]","[0, 0, 0]","[0, 0, 0]","[7.420176699999502, 13.186827200001062, 17.836782300000777]",0.0075723400004790165,17.84427264000078,['A3'],['B1'],['C3'],['salmon'],['blue'],['yellow'],820.5196493000003,None,7.0,3.4136304000003292,820.5196493000003,None,828.1363698000005,None,9.0,3.4983027999987826,831.4863237000009,None,7.0,2.6817790000004607,824.0362218999999,None,10.0,3.9144102999998722,<function functionImportanceC at 0x0000017A845A71E0>,<function functionImportanceA at 0x0000017A845A7620>,<function functionImportanceB at 0x0000017A845A7488>,,,1.0,3.0478242999997747,8.0,3.4983027999987826,0.0,3.0314120999992156,<function functiondiffA at 0x0000017A845A7AE8>,<function functiondiffB at 0x0000017A845A7950>,<function functiondiffC at 0x0000017A84861E18>,,,,,802.2002510000002,837.1861370999995,None,840.2360430999997,None,834.1528871999999,None,11,001,2022_Jul_12_1224,2leo,2021.2.3,60.01219447820375,
3,12,Plan the ingredients to mix yourself a cocktail,Stimuli/12A1.jpg,Stimuli/12A2.jpg,Stimuli/12A3.jpg,Stimuli/12B1.jpg,Stimuli/12B2.jpg,Stimuli/12B3.jpg,Stimuli/12C1.jpg,Stimuli/12C2.jpg,Stimuli/12C3.jpg,,,,,0,11,11,12,,,,,,,,842.8524533,None,843.8525344000009,None,849.8524925000002,None,"[0.304, -0.26]","[0.07, 0.393]","[-0.378, -0.136]","[0.066, -0.395]","[0.306, 0.255]","[-0.377, 0.138]","[-0.203, -0.347]","[0.399, -0.003]","[-0.2, 0.346]",,17.114653440001348,4.715397640000447,14.815025140000216,"[0.27037037037037037, -0.16203703703703703, 0.2537037037037037]","[0.2064814814814815, -0.35833333333333334, -0.20462962962962963]","[1, 1, 1]","[0, 0, 0]","[0, 0, 0]","[4.698103799999444, 14.797556299999997, 17.09772990000056]",0.016501340000104392,17.11395974000152,['A1'],['B2'],['C1'],['blue'],['salmon'],['yellow'],868.5684933000011,None,9.0,2.346734500000821,868.5684933000011,None,871.0020065000008,None,10.0,3.6645019999996293,877.2184892000005,None,10.0,2.1317154999997,874.6527203000005,None,10.0,2.5318458000001556,<function functionImportanceA at 0x0000017A84861510>,<function functionImportanceC at 0x0000017A848619D8>,<function functionImportanceB at 0x0000017A848618C8>,,,0.0,2.6809744000001956,3.0,3.6645019999996293,-0.0,2.2643861999986257,<function functiondiffA at 0x0000017A845A7730>,<function functiondiffB at 0x0000017A84071C80>,<function functiondiffC at 0x0000017A84071F28>,,,,,850.984741100001,882.0348924999998,None,884.3180634,None,879.3350272999996,None,11,001,2022_Jul_12_1224,2leo,2021.2.3,60.01219447820375,
3,33,Plan the items to decorate your Christmas tree,Stimuli/33A1.jpg,Stimuli/33A2.jpg,Stimuli/33A3.jpg,Stimuli/33B1.jpg,Stimuli/33B2.jpg,Stimuli/33B3.jpg,Stimuli/33C1.jpg,Stimuli/33C2.jpg,Stimuli/33C3.jpg,,,,,0,12,12,33,,,,,,,,888.8845521000003,None,889.884563900001,None,895.8847157,None,"[-0.377, 0.138]","[0.306, 0.255]","[0.066, -0.395]","[-0.2, 0.346]","[0.399, -0.003]","[-0.203, -0.347]","[-0.378, -0.136]","[0.07, 0.393]","[0.304, -0.26]",,10.657288640002662,5.674723340001947,17.32462274000318,"[-0.21666666666666667, -0.4074074074074074, 0.25092592592592594]","[-0.3398148148148148, 0.1361111111111111, -0.2722222222222222]","[1, 1, 1]","[0, 0, 0]","[0, 0, 0]","[5.666671700000734, 10.649722600001041, 17.316333900000245]",0.00715994000347564,17.32311994000338,['A1'],['B3'],['C3'],['salmon'],['yellow'],['blue'],915.3339625999997,None,8.0,1.8636344999995345,915.3339625999997,None,922.6838122000008,None,10.0,2.0817592999992485,920.3170805000009,None,-0.0,1.831782999999632,917.284009500001,None,10.0,3.047539900000629,<function functionImportanceC at 0x0000017A848610D0>,<function functionImportanceB at 0x0000017A84861D08>,<function functionImportanceA at 0x0000017A84861598>,,,8.0,3.1978760000001785,8.0,2.0817592999992485,3.0,5.314489500000491,<function functiondiffB at 0x0000017A84861D90>,<function functiondiffA at 0x0000017A84861730>,<function functiondiffC at 0x0000017A84861F28>,,,,,897.546248300001,924.2505664,None,932.8002207000009,None,929.7002332000011,None,11,001,2022_Jul_12_1224,2leo,2021.2.3,60.01219447820375,
3,8,Plan the interior of your living-room ,Stimuli/8A1.jpg,Stimuli/8A2.jpg,Stimuli/8A3.jpg,Stimuli/8B1.jpg,Stimuli/8B2.jpg,Stimuli/8B3.jpg,Stimuli/8C1.jpg,Stimuli/8C2.jpg,Stimuli/8C3.jpg,,,,,0,13,13,8,,,,,,,,935.0167516000001,None,936.0168365000009,None,942.0170111000007,None,"[0.306, 0.255]","[0.066, -0.395]","[-0.377, 0.138]","[0.399, -0.003]","[-0.203, -0.347]","[-0.2, 0.346]","[0.07, 0.393]","[0.304, -0.26]","[-0.378, -0.136]",,13.302897440011293,11.436805440011085,8.853963940011454,"[0.10185185185185185, -0.20833333333333334, 0.38055555555555554]","[0.38796296296296295, -0.375, 0.2638888888888889]","[1, 1, 1]","[0, 0, 0]","[0, 0, 0]","[8.839873299999454, 11.422838700000284, 13.289303499999733]",0.013148840011126595,13.302407940011108,['A1'],['B2'],['C1'],['salmon'],['blue'],['yellow'],960.5494397000002,None,8.0,2.247144999999364,960.5494397000002,None,966.9991828000002,None,8.0,2.748608299998523,964.5828903000001,None,10.0,4.114465000000564,971.6825411000009,None,10.0,3.6496958000007,<function functionImportanceB at 0x0000017A84861400>,<function functionImportanceA at 0x0000017A84071158>,<function functionImportanceC at 0x0000017A84861620>,,,0.0,3.6974341999994067,3.0,2.748608299998523,2.0,3.1339547999996284,<function functiondiffA at 0x0000017A848612F0>,<function functiondiffB at 0x0000017A845A7840>,<function functiondiffC at 0x0000017A84B34378>,,,,,946.7933291000008,977.6491578000005,None,980.8322929000005,None,973.399339900001,None,11,001,2022_Jul_12_1224,2leo,2021.2.3,60.01219447820375,
3,32,Plan how you want to relax after a workday,Stimuli/32A1.jpg,Stimuli/32A2.jpg,Stimuli/32A3.jpg,Stimuli/32B1.jpg,Stimuli/32B2.jpg,Stimuli/32B3.jpg,Stimuli/32C1.jpg,Stimuli/32C2.jpg,Stimuli/32C3.jpg,,,,,0,14,14,32,,,,,,,,982.298758500001,None,983.2988784999998,None,989.2989278000005,None,"[0.399, -0.003]","[-0.2, 0.346]","[-0.203, -0.347]","[0.07, 0.393]","[-0.378, -0.136]","[0.304, -0.26]","[0.306, 0.255]","[-0.377, 0.138]","[0.066, -0.395]",,13.808650660006606,5.942845760006094,9.642792460006604,"[0.2962962962962963, 0.32037037037037036, -0.21481481481481482]","[-0.2518518518518518, 0.22870370370370371, 0.362962962962963]","[1, 1, 1]","[0, 0, 0]","[0, 0, 0]","[5.9349452999995265, 9.651393899999675, 13.801145400000678]",0.006994960005613393,13.808094660005736,['A2'],['B3'],['C1'],['blue'],['yellow'],['salmon'],1006.6148074000012,None,10.0,2.463734300001306,1006.6148074000012,None,1013.6814632000005,None,10.0,4.148412200000166,1017.5978175,None,10.0,2.6487123999995674,1009.2149663,None,8.0,3.4309752000008302,<function functionImportanceC at 0x0000017A84B347B8>,<function functionImportanceA at 0x0000017A84071378>,<function functionImportanceB at 0x0000017A84B34620>,,,2.0,4.03120349999881,-0.0,4.148412200000166,0.0,4.431162900000345,<function functiondiffC at 0x0000017A84B34AE8>,<function functiondiffB at 0x0000017A84861BF8>,<function functiondiffA at 0x0000017A84861AE8>,,,,,992.3441235000009,1023.7645714000009,None,1019.3814375000002,None,1028.3810854000003,None,11,001,2022_Jul_12_1224,2leo,2021.2.3,60.01219447820375,
3,6,Plan your wedding,Stimuli/6A1.jpg,Stimuli/6A2.jpg,Stimuli/6A3.jpg,Stimuli/6B1.jpg,Stimuli/6B2.jpg,Stimuli/6B3.jpg,Stimuli/6C1.jpg,Stimuli/6C2.jpg,Stimuli/6C3.jpg,,,,,0,15,15,6,,,,,,,,1050.2638965000006,None,1051.263912800001,None,1057.2638478000008,None,"[-0.378, -0.136]","[0.304, -0.26]","[0.07, 0.393]","[-0.2, 0.346]","[-0.203, -0.347]","[0.399, -0.003]","[-0.377, 0.138]","[0.066, -0.395]","[0.306, 0.255]",,8.349808820010367,13.86656842001139,19.0836162200103,"[0.016666666666666666, -0.19444444444444445, 0.03888888888888889]","[0.39351851851851855, 0.32314814814814813, -0.4361111111111111]","[1, 1, 1]","[0, 0, 0]","[0, 0, 0]","[8.335225400000127, 13.851923700000043, 19.068636799998785]",0.013964420009870082,19.08235372001036,['A3'],['B1'],['C2'],['blue'],['yellow'],['salmon'],1081.9628857000007,None,8.0,2.513523300000088,1081.9628857000007,None,1089.4127733000005,None,10.0,3.1487376000004588,1086.1795432,None,10.0,3.647981500000242,1092.5791358999995,None,8.0,3.5150047000006452,<function functionImportanceB at 0x0000017A84B34598>,<function functionImportanceA at 0x0000017A84B34510>,<function functionImportanceC at 0x0000017A84B34158>,,,8.0,5.664639900000111,10.0,3.1487376000004588,0.0,4.014538299999913,<function functiondiffA at 0x0000017A84B34F28>,<function functiondiffB at 0x0000017A84B34BF8>,<function functiondiffC at 0x0000017A84B34B70>,,,,,1062.4271645999997,1100.9624074000003,None,1104.9802572999997,None,1095.1626422000008,None,11,001,2022_Jul_12_1224,2leo,2021.2.3,60.01219447820375,
3,0,Plan a barbecue,Stimuli/0A1.jpg,Stimuli/0A2.jpg,Stimuli/0A3.jpg,Stimuli/0B1.jpg,Stimuli/0B2.jpg,Stimuli/0B3.jpg,Stimuli/0C1.jpg,Stimuli/0C2.jpg,Stimuli/0C3.jpg,,,,,0,16,16,0,,,,,,,,1108.1287989000011,None,1109.12889,None,1115.1288326000013,None,"[0.066, -0.395]","[-0.377, 0.138]","[0.306, 0.255]","[-0.203, -0.347]","[-0.2, 0.346]","[0.399, -0.003]","[0.304, -0.26]","[-0.378, -0.136]","[0.07, 0.393]",,14.260135380003703,5.827186280002934,11.110737480003081,"[0.3787037037037037, 0.10925925925925926, 0.28055555555555556]","[0.020370370370370372, 0.37037037037037035, 0.23981481481481481]","[1, 1, 1]","[0, 0, 0]","[0, 0, 0]","[5.82164560000092, 11.105111599999873, 14.255027100000007]",0.004521480002949829,14.259245080003893,['A3'],['B3'],['C3'],['yellow'],['blue'],['salmon'],1132.344869800001,None,8.0,2.4470421000005445,1132.344869800001,None,1141.4802262000012,None,10.0,3.2486086999997497,1143.428135600001,None,2.0,2.0654080000003887,1134.8949814000007,None,2.0,5.247730299999603,<function functionImportanceC at 0x0000017A84B34400>,<function functionImportanceA at 0x0000017A84B34488>,<function functionImportanceB at 0x0000017A84B346A8>,,,0.0,1.9643553999994765,7.0,3.2486086999997497,-0.0,3.2311155999996117,<function functiondiffB at 0x0000017A84B34D90>,<function functiondiffC at 0x0000017A84B34268>,<function functiondiffA at 0x0000017A84B34EA0>,,,,,1117.6211304999997,1145.428034300001,None,1148.6961769999998,None,1151.6611524,None,11,001,2022_Jul_12_1224,2leo,2021.2.3,60.01219447820375,
3,11,Plan a hike in nature on a free day,Stimuli/11A1.jpg,Stimuli/11A2.jpg,Stimuli/11A3.jpg,Stimuli/11B1.jpg,Stimuli/11B2.jpg,Stimuli/11B3.jpg,Stimuli/11C1.jpg,Stimuli/11C2.jpg,Stimuli/11C3.jpg,,,,,0,17,17,11,,,,,,,,1152.7609697999997,None,1153.760976200001,None,1159.7611022,None,"[0.306, 0.255]","[-0.377, 0.138]","[0.066, -0.395]","[0.07, 0.393]","[-0.378, -0.136]","[0.304, -0.26]","[0.399, -0.003]","[-0.2, 0.346]","[-0.203, -0.347]",,4.198224339999797,10.198016140000618,16.51464943999963,"[0.06944444444444445, -0.3685185185185185, -0.2101851851851852]","[-0.39166666666666666, -0.1648148148148148, -0.31666666666666665]","[1, 1, 1]","[0, 0, 0]","[0, 0, 0]","[4.18968280000081, 10.189311199999793, 16.505627200000163]",0.007914840000012191,16.5133127400004,['A3'],['B2'],['C3'],['blue'],['salmon'],['yellow'],1177.8935340999997,None,8.0,1.6633122999992338,1177.8935340999997,None,1185.1433005,None,10.0,2.3648895000005723,1182.760362000001,None,10.0,2.331640899999911,1179.6269599999996,None,10.0,3.1144899999999325,<function functionImportanceC at 0x0000017A84B34048>,<function functionImportanceB at 0x0000017A84071D90>,<function functionImportanceA at 0x0000017A84861048>,,,-0.0,1.8645022000000608,1.0,2.3648895000005723,2.0,2.9978351999998267,<function functiondiffB at 0x0000017A84861268>,<function functiondiffA at 0x0000017A84B342F0>,<function functiondiffC at 0x0000017A848617B8>,,,,,1160.9024821000003,1187.4601493999999,None,1192.360208,None,1190.4768237999997,None,11,001,2022_Jul_12_1224,2leo,2021.2.3,60.01219447820375,
3,23,Plan a city trip,Stimuli/23A1.jpg,Stimuli/23A2.jpg,Stimuli/23A3.jpg,Stimuli/23B1.jpg,Stimuli/23B2.jpg,Stimuli/23B3.jpg,Stimuli/23C1.jpg,Stimuli/23C2.jpg,Stimuli/23C3.jpg,,,,,0,18,18,23,,,,,,,,1194.7765608999998,None,1195.7766346999997,None,1201.7765246,None,"[-0.377, 0.138]","[0.066, -0.395]","[0.306, 0.255]","[-0.378, -0.136]","[0.304, -0.26]","[0.07, 0.393]","[-0.2, 0.346]","[-0.203, -0.347]","[0.399, -0.003]",,9.283747339999536,3.8513581400002295,6.484628039999734,"[0.2574074074074074, -0.15555555555555556, -0.33611111111111114]","[-0.2064814814814815, -0.35, 0.0787037037037037]","[1, 1, 1]","[0, 0, 0]","[0, 0, 0]","[3.8411569999989297, 6.474199399999634, 9.27388719999908]",0.009425440000995877,9.283302240000921,['A1'],['B2'],['C2'],['yellow'],['blue'],['salmon'],1212.6759401,None,10.0,2.131061599999157,1212.6759401,None,1214.8596816999998,None,10.0,2.1144036000005144,1219.0093233999996,None,10.0,2.4317078000003676,1217.0426402000012,None,10.0,1.9814748999997391,<function functionImportanceA at 0x0000017A84861158>,<function functionImportanceC at 0x0000017A84DCA378>,<function functionImportanceB at 0x0000017A84DCA488>,,,-0.0,2.0142111999994086,-0.0,2.1144036000005144,0.0,2.0313076000002184,<function functiondiffA at 0x0000017A84B34E18>,<function functiondiffB at 0x0000017A84B34A60>,<function functiondiffC at 0x0000017A84DCA840>,,,,,1202.9170909000004,1223.4590989000008,None,1225.5090766000012,None,1221.426067800001,None,11,001,2022_Jul_12_1224,2leo,2021.2.3,60.01219447820375,
3,13,Plan a romantic date this weekend,Stimuli/13A1.jpg,Stimuli/13A2.jpg,Stimuli/13A3.jpg,Stimuli/13B1.jpg,Stimuli/13B2.jpg,Stimuli/13B3.jpg,Stimuli/13C1.jpg,Stimuli/13C2.jpg,Stimuli/13C3.jpg,,,,,0,19,19,13,,,,,,,,1227.0257044999998,None,1228.0256461999998,None,1234.0256772000012,None,"[0.304, -0.26]","[0.07, 0.393]","[-0.378, -0.136]","[-0.203, -0.347]","[0.399, -0.003]","[-0.2, 0.346]","[0.066, -0.395]","[0.306, 0.255]","[-0.377, 0.138]",,20.89842702000169,16.04885702000138,5.282282720001604,"[0.05740740740740741, -0.19722222222222222, 0.037037037037037035]","[-0.41759259259259257, 0.3537037037037037, 0.3472222222222222]","[1, 1, 1]","[0, 0, 0]","[0, 0, 0]","[5.272577600000659, 16.039164899999378, 20.889071800000238]",0.008733020000363467,20.897684820001814,['A2'],['B3'],['C1'],['yellow'],['salmon'],['blue'],1256.5915186000002,None,10.0,2.230083399999785,1256.5915186000002,None,1266.6248661999998,None,3.0,2.698565700000472,1258.9415798999999,None,3.0,4.997579899998527,1263.9249082000006,None,10.0,2.698472000000038,<function functionImportanceB at 0x0000017A84DCAAE8>,<function functionImportanceC at 0x0000017A84DCA620>,<function functionImportanceA at 0x0000017A84DCA9D8>,,,0.0,2.531287900001189,2.0,2.698565700000472,8.0,4.1476934000002075,<function functiondiffC at 0x0000017A84DCA6A8>,<function functiondiffB at 0x0000017A84DCAC80>,<function functiondiffA at 0x0000017A84DCA048>,,,,,1235.2183607000006,1273.1912857999996,None,1269.2915130000001,None,1277.3411101000002,None,11,001,2022_Jul_12_1224,2leo,2021.2.3,60.01219447820375,
3,14,Plan your own Pizza for dinner,Stimuli/14A1.jpg,Stimuli/14A2.jpg,Stimuli/14A3.jpg,Stimuli/14B1.jpg,Stimuli/14B2.jpg,Stimuli/14B3.jpg,Stimuli/14C1.jpg,Stimuli/14C2.jpg,Stimuli/14C3.jpg,,,,,0,20,20,14,,,,,,,,1279.3909074000003,None,1280.3909832000008,None,1286.3909569999996,None,"[-0.377, 0.138]","[0.066, -0.395]","[0.306, 0.255]","[-0.2, 0.346]","[-0.203, -0.347]","[0.399, -0.003]","[-0.378, -0.136]","[0.304, -0.26]","[0.07, 0.393]",,20.274289099999805,7.425084499998775,12.291972199998781,"[0.39537037037037037, 0.26666666666666666, -0.3990740740740741]","[0.017592592592592594, -0.25, 0.16111111111111112]","[1, 1, 1]","[0, 0, 0]","[0, 0, 0]","[7.411050900000191, 12.277659100000164, 20.260709700000007]",0.013170599999284605,20.273666899998716,['A1'],['B3'],['C2'],['salmon'],['blue'],['yellow'],1308.2902157000008,None,8.0,2.480593399999634,1308.2902157000008,None,1317.8069655,None,10.0,2.0989305000002787,1310.8903748000012,None,10.0,4.947949999999764,1315.7899166000007,None,10.0,1.9820502000002307,<function functionImportanceB at 0x0000017A84B34730>,<function functionImportanceC at 0x0000017A84B341E0>,<function functionImportanceA at 0x0000017A84B34950>,,,1.0,2.3308666000011726,-0.0,2.0989305000002787,2.0,1.8980439999995724,<function functiondiffA at 0x0000017A84DCA268>,<function functiondiffB at 0x0000017A84DCA7B8>,<function functiondiffC at 0x0000017A84DCA730>,,,,,1287.5431869000004,1322.2566047,None,1324.1566139000006,None,1319.8900754000006,None,11,001,2022_Jul_12_1224,2leo,2021.2.3,60.01219447820375,
3,35,Plan how you want to do your grocery shopping ,Stimuli/35A1.jpg,Stimuli/35A2.jpg,Stimuli/35A3.jpg,Stimuli/35B1.jpg,Stimuli/35B2.jpg,Stimuli/35B3.jpg,Stimuli/35C1.jpg,Stimuli/35C2.jpg,Stimuli/35C3.jpg,,,,,0,21,21,35,,,,,,,,1326.0228000999996,None,1327.0231404000006,None,1333.0231529000012,None,"[0.066, -0.395]","[-0.377, 0.138]","[0.306, 0.255]","[-0.203, -0.347]","[-0.2, 0.346]","[0.399, -0.003]","[0.304, -0.26]","[-0.378, -0.136]","[0.07, 0.393]",,10.82046912000078,19.086963219999234,6.537391120000393,"[0.35, 0.3175925925925926, 0.42592592592592593]","[-0.2833333333333333, 0.2796296296296296, -0.016666666666666666]","[1, 1, 1]","[0, 0, 0]","[0, 0, 0]","[6.5336186999993515, 10.817079899999953, 19.083305800000744]",0.0027825199995277217,19.085926820000168,['A3'],['B3'],['C1'],['salmon'],['yellow'],['blue'],1353.7889132,None,7.0,3.8301903000010498,1353.7889132,None,1361.9724361000008,None,10.0,2.0317547999984527,1357.7556645000004,None,10.0,4.247473399998853,1363.9887584999997,None,10.0,2.7819393999998283,<function functionImportanceB at 0x0000017A84DCAD90>,<function functionImportanceA at 0x0000017A845A7EA0>,<function functionImportanceC at 0x0000017A8539E598>,,,0.0,2.2992397000016354,0.0,2.0317547999984527,2.0,3.681069899999784,<function functiondiffC at 0x0000017A84DCAEA0>,<function functiondiffA at 0x0000017A84DCA158>,<function functiondiffB at 0x0000017A84DCA598>,,,,,1334.2215152999997,1372.7220517000005,None,1366.7722743000013,None,1370.3886796999996,None,11,001,2022_Jul_12_1224,2leo,2021.2.3,60.01219447820375,
3,3,Plan a movie night with a friend,Stimuli/3A1.jpg,Stimuli/3A2.jpg,Stimuli/3A3.jpg,Stimuli/3B1.jpg,Stimuli/3B2.jpg,Stimuli/3B3.jpg,Stimuli/3C1.jpg,Stimuli/3C2.jpg,Stimuli/3C3.jpg,,,,,0,22,22,3,,,,,,,,1375.9048445000008,None,1376.9051335000004,None,1382.9051474999997,None,"[-0.377, 0.138]","[0.066, -0.395]","[0.306, 0.255]","[-0.2, 0.346]","[-0.203, -0.347]","[0.399, -0.003]","[-0.378, -0.136]","[0.304, -0.26]","[0.07, 0.393]",,12.160604900005637,15.927645700005087,6.861131800005751,"[0.3055555555555556, 0.2814814814814815, 0.3851851851851852]","[-0.24537037037037038, 0.25462962962962965, -0.019444444444444445]","[1, 1, 1]","[0, 0, 0]","[0, 0, 0]","[6.849798700000974, 12.149639299999762, 15.916484299999865]",0.010320000004867325,15.926501100006135,['A3'],['B3'],['C2'],['blue'],['yellow'],['salmon'],1402.8211331000002,None,10.0,1.696654600000329,1402.8211331000002,None,1410.6376961000005,None,10.0,1.9316980999992666,1405.2877409000012,None,10.0,2.6645848999996815,1408.9707436000008,None,10.0,3.34857379999994,<function functionImportanceB at 0x0000017A84DCAA60>,<function functionImportanceC at 0x0000017A8539E488>,<function functionImportanceA at 0x0000017A84861C80>,,,-0.0,1.7644073999999819,-0.0,1.9316980999992666,0.0,1.748319399999673,<function functiondiffC at 0x0000017A8539E840>,<function functiondiffA at 0x0000017A84DCAF28>,<function functiondiffB at 0x0000017A84DCAD08>,,,,,1386.4394043000011,1416.6709150000006,None,1412.887583400001,None,1414.5208858000005,None,11,001,2022_Jul_12_1224,2leo,2021.2.3,60.01219447820375,
3,38,Plan how you want to go for a run,Stimuli/38A1.jpg,Stimuli/38A2.jpg,Stimuli/38A3.jpg,Stimuli/38B1.jpg,Stimuli/38B2.jpg,Stimuli/38B3.jpg,Stimuli/38C1.jpg,Stimuli/38C2.jpg,Stimuli/38C3.jpg,,,,,0,23,23,38,,,,,,,,1417.5706592000006,None,1418.5708372000008,None,1424.5706315000007,None,"[0.304, -0.26]","[0.07, 0.393]","[-0.378, -0.136]","[0.066, -0.395]","[0.306, 0.255]","[-0.377, 0.138]","[-0.203, -0.347]","[0.399, -0.003]","[-0.2, 0.346]",,13.643476640001609,10.226065240001844,3.809668440000678,"[0.4305555555555556, -0.33055555555555555, -0.39537037037037037]","[0.012962962962962963, 0.11481481481481481, -0.1259259259259259]","[1, 1, 1]","[0, 0, 0]","[0, 0, 0]","[3.8029399999995803, 10.21943359999932, 13.637176099999124]",0.0057140400022035465,13.641874640001333,['A3'],['B3'],['C2'],['blue'],['salmon'],['yellow'],1439.920015400001,None,10.0,1.712821700000859,1439.920015400001,None,1441.7033189000012,None,10.0,2.4313764999988052,1444.1866472000002,None,10.0,2.148335699999734,1446.453348000001,None,10.0,2.231792899998254,<function functionImportanceA at 0x0000017A8539EF28>,<function functionImportanceB at 0x0000017A8539EEA0>,<function functionImportanceC at 0x0000017A8539E8C8>,,,0.0,2.247874299999239,2.0,2.4313764999988052,2.0,2.198477299998558,<function functiondiffA at 0x0000017A8539E378>,<function functiondiffB at 0x0000017A84DCA950>,<function functiondiffC at 0x0000017A84DCA510>,,,,,1425.7998707000006,1450.8034220000009,None,1453.0364835,None,1448.5365674000004,None,11,001,2022_Jul_12_1224,2leo,2021.2.3,60.01219447820375,
3,37,Plan your cleaning routine ,Stimuli/37A1.jpg,Stimuli/37A2.jpg,Stimuli/37A3.jpg,Stimuli/37B1.jpg,Stimuli/37B2.jpg,Stimuli/37B3.jpg,Stimuli/37C1.jpg,Stimuli/37C2.jpg,Stimuli/37C3.jpg,,,,,0,24,24,37,,,,,,,,1454.9530501999998,None,1455.952984200001,None,1461.9529478000004,None,"[-0.2, 0.346]","[0.399, -0.003]","[-0.203, -0.347]","[-0.378, -0.136]","[0.07, 0.393]","[0.304, -0.26]","[-0.377, 0.138]","[0.306, 0.255]","[0.066, -0.395]",,12.160050520000368,7.660382320000281,4.544349420000799,"[0.28703703703703703, -0.32407407407407407, 0.3648148148148148]","[0.1675925925925926, -0.14166666666666666, 0.002777777777777778]","[1, 1, 1]","[0, 0, 0]","[0, 0, 0]","[4.529329299999517, 7.645679999999629, 12.145550900000671]",0.013985319999846979,12.159395619999486,['A2'],['B1'],['C2'],['blue'],['salmon'],['yellow'],1475.6857520000012,None,10.0,1.8305571999990207,1475.6857520000012,None,1482.452376700001,None,10.0,3.1648334999990766,1479.735743000001,None,10.0,2.681935300000987,1477.5858853000009,None,10.0,2.147834800000055,<function functionImportanceC at 0x0000017A84861EA0>,<function functionImportanceB at 0x0000017A84861B70>,<function functionImportanceA at 0x0000017A84861378>,,,2.0,1.7644407999996474,-0.0,3.1648334999990766,2.0,1.8813336999992316,<function functiondiffC at 0x0000017A8539EC80>,<function functiondiffB at 0x0000017A8539E2F0>,<function functiondiffA at 0x0000017A8539E048>,,,,,1463.0558870000004,1487.9189442999996,None,1485.6022577000003,None,1489.8188188000004,None,11,001,2022_Jul_12_1224,2leo,2021.2.3,60.01219447820375,
3,28,Plan a one-week camping trip in Spain,Stimuli/28A1.jpg,Stimuli/28A2.jpg,Stimuli/28A3.jpg,Stimuli/28B1.jpg,Stimuli/28B2.jpg,Stimuli/28B3.jpg,Stimuli/28C1.jpg,Stimuli/28C2.jpg,Stimuli/28C3.jpg,,,,,0,25,25,28,,,,,,,,1491.101899700001,None,1492.1024522999996,None,1498.1023191000004,None,"[-0.2, 0.346]","[0.399, -0.003]","[-0.203, -0.347]","[-0.377, 0.138]","[0.306, 0.255]","[0.066, -0.395]","[-0.378, -0.136]","[0.07, 0.393]","[0.304, -0.26]",,24.066190419998748,10.122880519997125,19.416559119998055,"[0.06296296296296296, 0.33611111111111114, -0.20555555555555555]","[-0.412962962962963, -0.2324074074074074, -0.29814814814814816]","[1, 1, 1]","[0, 0, 0]","[0, 0, 0]","[10.121417100001054, 19.415162400000554, 24.065322300000844]",0.00028091999774915166,24.065102219998153,['A3'],['B3'],['C3'],['yellow'],['salmon'],['blue'],1523.7679355,None,8.0,2.030075799999395,1523.7679355,None,1525.8679024000012,None,10.0,2.9322390999986965,1528.8180016000006,None,10.0,2.2313586000000214,1531.0512514000002,None,10.0,2.0150979999998526,<function functionImportanceA at 0x0000017A84DCABF8>,<function functionImportanceB at 0x0000017A84DCA2F0>,<function functionImportanceC at 0x0000017A84DCA0D0>,,,0.0,2.014793700000155,3.0,2.9322390999986965,2.0,3.1144673000017065,<function functiondiffB at 0x0000017A8539E620>,<function functiondiffC at 0x0000017A8539E0D0>,<function functiondiffA at 0x0000017A84861A60>,,,,,1499.2170301000006,1533.0676393000012,None,1536.2009823000008,None,1538.3509047000007,None,11,001,2022_Jul_12_1224,2leo,2021.2.3,60.01219447820375,
3,19,Plan how you want your garden to look like,Stimuli/19A1.jpg,Stimuli/19A2.jpg,Stimuli/19A3.jpg,Stimuli/19B1.jpg,Stimuli/19B2.jpg,Stimuli/19B3.jpg,Stimuli/19C1.jpg,Stimuli/19C2.jpg,Stimuli/19C3.jpg,,,,,0,26,26,19,,,,,,,,1539.8838297000002,None,1540.8843377000012,None,1546.8841334999997,None,"[-0.2, 0.346]","[0.399, -0.003]","[-0.203, -0.347]","[-0.378, -0.136]","[0.07, 0.393]","[0.304, -0.26]","[-0.377, 0.138]","[0.306, 0.255]","[0.066, -0.395]",,9.931227780009067,13.447799780009518,6.132005280009253,"[-0.4388888888888889, 0.3675925925925926, 0.07777777777777778]","[0.14444444444444443, -0.012037037037037037, 0.33611111111111114]","[1, 1, 1]","[0, 0, 0]","[0, 0, 0]","[6.126797400000214, 9.926505400000678, 13.442803800000547]",0.004192080008579069,13.446991880009591,['A2'],['B2'],['C1'],['blue'],['salmon'],['yellow'],1564.3833132,None,10.0,1.9973006000000169,1564.3833132,None,1570.8500494,None,10.0,2.2485811000005924,1574.2008234000004,None,10.0,3.6481621000002633,1567.8002020000004,None,10.0,4.364812899999379,<function functionImportanceC at 0x0000017A8539EA60>,<function functionImportanceA at 0x0000017A8539E7B8>,<function functionImportanceB at 0x0000017A8539E158>,,,9.0,5.614287399999739,1.0,2.2485811000005924,9.0,2.797951500000636,<function functiondiffC at 0x0000017A8539E730>,<function functiondiffA at 0x0000017A84DCA8C8>,<function functiondiffB at 0x0000017A84DCAB70>,,,,,1550.4761743,1586.9664137,None,1577.0999897000002,None,1581.0999271,None,11,001,2022_Jul_12_1224,2leo,2021.2.3,60.01219447820375,
3,20,Plan a tea party with your friends,Stimuli/20A1.jpg,Stimuli/20A2.jpg,Stimuli/20A3.jpg,Stimuli/20B1.jpg,Stimuli/20B2.jpg,Stimuli/20B3.jpg,Stimuli/20C1.jpg,Stimuli/20C2.jpg,Stimuli/20C3.jpg,,,,,0,27,27,20,,,,,,,,1589.0491863999996,None,1590.0494450000006,None,1596.0495702000007,None,"[0.07, 0.393]","[-0.378, -0.136]","[0.304, -0.26]","[0.399, -0.003]","[-0.2, 0.346]","[-0.203, -0.347]","[0.306, 0.255]","[-0.377, 0.138]","[0.066, -0.395]",,14.47942296000656,10.479921560005096,5.113711360005254,"[-0.38981481481481484, 0.3972222222222222, 0.30462962962962964]","[0.10648148148148148, 0.023148148148148147, -0.24259259259259258]","[1, 1, 1]","[0, 0, 0]","[0, 0, 0]","[5.1005707000003895, 10.46711730000061, 14.466672200000176]",0.012093960005586268,14.478742160006732,['A3'],['B1'],['C2'],['yellow'],['blue'],['salmon'],1614.6154896000007,None,10.0,1.8142005999998219,1614.6154896000007,None,1621.7987374000004,None,10.0,1.9481815999988612,1618.9487226,None,9.0,5.26447349999944,1623.7820326,None,10.0,1.9981670999986818,<function functionImportanceB at 0x0000017A8539EBF8>,<function functionImportanceA at 0x0000017A8539EE18>,<function functionImportanceC at 0x0000017A85735400>,,,-0.0,2.7808757000002515,2.0,1.9481815999988612,0.0,4.1314923000009,<function functiondiffA at 0x0000017A8539E1E0>,<function functiondiffC at 0x0000017A857359D8>,<function functiondiffB at 0x0000017A8539E950>,,,,,1599.679999,1631.7152205000002,None,1628.5319199000005,None,1625.7321014000008,None,11,001,2022_Jul_12_1224,2leo,2021.2.3,60.01219447820375,
3,36,Plan your shopping for new clothing,Stimuli/36A1.jpg,Stimuli/36A2.jpg,Stimuli/36A3.jpg,Stimuli/36B1.jpg,Stimuli/36B2.jpg,Stimuli/36B3.jpg,Stimuli/36C1.jpg,Stimuli/36C2.jpg,Stimuli/36C3.jpg,,,,,0,28,28,36,,,,,,,,1634.8313228999996,None,1635.8315789000007,None,1641.8316212999998,None,"[0.066, -0.395]","[-0.377, 0.138]","[0.306, 0.255]","[0.304, -0.26]","[-0.378, -0.136]","[0.07, 0.393]","[-0.203, -0.347]","[-0.2, 0.346]","[0.399, -0.003]",,19.201924879998842,4.2194518799988145,9.152741179999794,"[-0.3787037037037037, -0.14351851851851852, 0.05462962962962963]","[-0.1388888888888889, 0.3787037037037037, -0.3861111111111111]","[1, 1, 1]","[0, 0, 0]","[0, 0, 0]","[4.208459699999366, 9.1414592000001, 19.1912726999999]",0.010215279999101767,19.201377280000088,['A1'],['B2'],['C2'],['salmon'],['yellow'],['blue'],1662.630788800001,None,10.0,2.8137859999987995,1662.630788800001,None,1672.4473158,None,10.0,1.665292200001204,1669.5310272999996,None,9.0,2.9483736000001954,1665.514135200001,None,10.0,3.9475445999996737,<function functionImportanceC at 0x0000017A85735158>,<function functionImportanceB at 0x0000017A85735A60>,<function functionImportanceA at 0x0000017A8539EB70>,,,-0.0,3.0809423999999126,2.0,1.665292200001204,-0.0,1.5312162000009266,<function functiondiffA at 0x0000017A84DCA400>,<function functiondiffB at 0x0000017A8539E6A8>,<function functiondiffC at 0x0000017A8539EAE8>,,,,,1642.956002500001,1677.1972755999996,None,1678.73063,None,1674.097316200001,None,11,001,2022_Jul_12_1224,2leo,2021.2.3,60.01219447820375,
3,29,Plan a day in the mountains ,Stimuli/29A1.jpg,Stimuli/29A2.jpg,Stimuli/29A3.jpg,Stimuli/29B1.jpg,Stimuli/29B2.jpg,Stimuli/29B3.jpg,Stimuli/29C1.jpg,Stimuli/29C2.jpg,Stimuli/29C3.jpg,,,,,0,29,29,29,,,,,,,,1680.5138444000004,None,1681.5138364000013,None,1687.5137985000001,None,"[0.399, -0.003]","[-0.203, -0.347]","[-0.2, 0.346]","[0.306, 0.255]","[0.066, -0.395]","[-0.377, 0.138]","[0.07, 0.393]","[0.304, -0.26]","[-0.378, -0.136]",,17.66941349999979,5.8533200999991095,13.953387100000327,"[0.05555555555555555, 0.07222222222222222, -0.2]","[-0.38055555555555554, 0.3296296296296296, 0.3453703703703704]","[1, 1, 1]","[0, 0, 0]","[0, 0, 0]","[5.850165699999707, 13.950111599999218, 17.66645779999999]",0.0023586999996041413,17.668656399999236,['A3'],['B2'],['C1'],['salmon'],['yellow'],['blue'],1706.8297307000012,None,8.0,1.763865100001567,1706.8297307000012,None,1712.9794235000008,None,9.0,2.598623800000496,1708.646420000001,None,10.0,4.248031799999808,1715.5463896,None,9.0,6.615047700001014,<function functionImportanceB at 0x0000017A85735730>,<function functionImportanceA at 0x0000017A85735F28>,<function functionImportanceC at 0x0000017A85735E18>,,,0.0,4.580945499999871,9.0,2.598623800000496,10.0,5.181321000000025,<function functiondiffA at 0x0000017A848616A8>,<function functiondiffC at 0x0000017A8539E268>,<function functiondiffB at 0x0000017A8539E510>,,,,,1688.6788913,1729.012512700001,None,1726.7460224000006,None,1722.1627487000005,None,11,001,2022_Jul_12_1224,2leo,2021.2.3,60.01219447820375,
3,43,Plan your dream house,Stimuli/43A1.jpg,Stimuli/43A2.jpg,Stimuli/43A3.jpg,Stimuli/43B1.jpg,Stimuli/43B2.jpg,Stimuli/43B3.jpg,Stimuli/43C1.jpg,Stimuli/43C2.jpg,Stimuli/43C3.jpg,,,,,0,30,30,43,,,,,,,,1750.4119487000007,None,1751.4120428999995,None,1757.4120491000012,None,"[-0.377, 0.138]","[0.306, 0.255]","[0.066, -0.395]","[-0.378, -0.136]","[0.07, 0.393]","[0.304, -0.26]","[-0.2, 0.346]","[0.399, -0.003]","[-0.203, -0.347]",,13.873241780000171,10.073891379999623,5.924096479999207,"[-0.2175925925925926, 0.34629629629629627, -0.337037037037037]","[-0.30925925925925923, -0.2861111111111111, 0.1388888888888889]","[1, 1, 1]","[0, 0, 0]","[0, 0, 0]","[5.919117699999333, 10.069153099999312, 13.868942299999617]",0.003889879999405821,13.872550779999074,['A1'],['B3'],['C3'],['salmon'],['blue'],['yellow'],1772.894582500001,None,10.0,1.6633870999994542,1772.894582500001,None,1777.6278344000002,None,9.0,3.5999680000004446,1774.6114267000012,None,10.0,2.9646837000000232,1781.2111623,None,10.0,2.34824320000007,<function functionImportanceB at 0x0000017A84DCAE18>,<function functionImportanceA at 0x0000017A84DCA1E0>,<function functionImportanceC at 0x0000017A857358C8>,,,-0.0,2.130862200001502,-0.0,3.5999680000004446,-0.0,2.2980224000002636,<function functiondiffA at 0x0000017A85735378>,<function functiondiffB at 0x0000017A85735488>,<function functiondiffC at 0x0000017A85735598>,,,,,1758.5407792000005,1785.7114289,None,1788.0278629000004,None,1783.5449136000007,None,11,001,2022_Jul_12_1224,2leo,2021.2.3,60.01219447820375,
3,22,Plan a beach day with your friends,Stimuli/22A1.jpg,Stimuli/22A2.jpg,Stimuli/22A3.jpg,Stimuli/22B1.jpg,Stimuli/22B2.jpg,Stimuli/22B3.jpg,Stimuli/22C1.jpg,Stimuli/22C2.jpg,Stimuli/22C3.jpg,,,,,0,31,31,22,,,,,,,,1789.4439237999995,None,1790.444209700001,None,1796.4443334999996,None,"[0.306, 0.255]","[0.066, -0.395]","[-0.377, 0.138]","[0.07, 0.393]","[0.304, -0.26]","[-0.378, -0.136]","[0.399, -0.003]","[-0.203, -0.347]","[-0.2, 0.346]",,10.548356879999119,3.315308079998431,6.382210279998617,"[0.03148148148148148, 0.3712962962962963, 0.08796296296296297]","[0.3277777777777778, -0.014814814814814815, -0.40555555555555556]","[1, 1, 1]","[0, 0, 0]","[0, 0, 0]","[3.3064149000001635, 6.373013100001117, 10.539637900001253]",0.008039179998377222,10.5474906799991,['A2'],['B1'],['C1'],['salmon'],['blue'],['yellow'],1808.5936528000002,None,10.0,1.846396499999173,1808.5936528000002,None,1815.8103487000008,None,2.0,4.181375399999524,1814.0268094000003,None,10.0,1.748433799999475,1810.5271702999999,None,-0.0,3.514714900000399,<function functionImportanceC at 0x0000017A84B348C8>,<function functionImportanceB at 0x0000017A84B34C80>,<function functionImportanceA at 0x0000017A85735AE8>,,,-0.0,2.0980541999997513,7.0,4.181375399999524,-0.0,2.1809290000001056,<function functiondiffB at 0x0000017A85735C80>,<function functiondiffC at 0x0000017A85735BF8>,<function functiondiffA at 0x0000017A85735950>,,,,,1797.5700283999995,1819.9769145999999,None,1822.1767612000003,None,1826.710145000001,None,11,001,2022_Jul_12_1224,2leo,2021.2.3,60.01219447820375,
3,26,Plan how to wash one round of your laundry ,Stimuli/26A1.jpg,Stimuli/26A2.jpg,Stimuli/26A3.jpg,Stimuli/26B1.jpg,Stimuli/26B2.jpg,Stimuli/26B3.jpg,Stimuli/26C1.jpg,Stimuli/26C2.jpg,Stimuli/26C3.jpg,,,,,0,32,32,26,,,,,,,,1828.3262532999997,None,1829.3264622000006,None,1835.3264947999996,None,"[-0.2, 0.346]","[0.399, -0.003]","[-0.203, -0.347]","[-0.377, 0.138]","[0.306, 0.255]","[0.066, -0.395]","[-0.378, -0.136]","[0.07, 0.393]","[0.304, -0.26]",,17.50304246000087,13.003321860000142,5.670786560000124,"[0.32592592592592595, -0.36574074074074076, 0.43703703703703706]","[-0.2518518518518518, 0.14629629629629629, -0.016666666666666666]","[1, 1, 1]","[0, 0, 0]","[0, 0, 0]","[5.667806399998881, 13.000761999999668, 17.50064829999974]",0.0018794600018736674,17.502239960000225,['A2'],['B1'],['C3'],['yellow'],['salmon'],['blue'],1854.4091706,None,10.0,1.8631787000012991,1854.4091706,None,1859.8092397,None,8.0,4.148478400000386,1863.9922934999995,None,10.0,4.748066999998628,1856.3425489,None,10.0,3.464397599998847,<function functionImportanceC at 0x0000017A85ABD158>,<function functionImportanceA at 0x0000017A84B34840>,<function functionImportanceB at 0x0000017A85ABD048>,,,3.0,1.8147862999994686,-0.0,4.148478400000386,-0.0,1.6642179000009492,<function functiondiffB at 0x0000017A85735268>,<function functiondiffC at 0x0000017A85735EA0>,<function functiondiffA at 0x0000017A8539ED90>,,,,,1836.4232831999998,1868.7254615000002,None,1870.4087133000012,None,1872.2755288000008,None,11,001,2022_Jul_12_1224,2leo,2021.2.3,60.01219447820375,
3,34,Plan what car you want to buy,Stimuli/34A1.jpg,Stimuli/34A2.jpg,Stimuli/34A3.jpg,Stimuli/34B1.jpg,Stimuli/34B2.jpg,Stimuli/34B3.jpg,Stimuli/34C1.jpg,Stimuli/34C2.jpg,Stimuli/34C3.jpg,,,,,0,33,33,34,,,,,,,,1873.6083577999998,None,1874.6086637000008,None,1880.6088978999996,None,"[0.399, -0.003]","[-0.2, 0.346]","[-0.203, -0.347]","[0.07, 0.393]","[-0.378, -0.136]","[0.304, -0.26]","[0.306, 0.255]","[-0.377, 0.138]","[0.066, -0.395]",,22.54859882000528,14.515434320006534,6.549474020006528,"[0.07592592592592592, 0.02962962962962963, 0.38055555555555554]","[-0.4083333333333333, 0.37962962962962965, -0.022222222222222223]","[1, 1, 1]","[0, 0, 0]","[0, 0, 0]","[6.538083299999926, 14.504513599998972, 22.537939099998766]",0.01025852000566374,22.547916520006765,['A1'],['B1'],['C3'],['salmon'],['blue'],['yellow'],1906.6743798000007,None,9.0,2.1801847999995516,1906.6743798000007,None,1909.924437900001,None,10.0,5.398150799999712,1917.5909296999998,None,10.0,2.9319390000000567,1914.3408775000007,None,8.0,2.2650172999983624,<function functionImportanceA at 0x0000017A85ABDD08>,<function functionImportanceC at 0x0000017A85ABD6A8>,<function functionImportanceB at 0x0000017A85ABDBF8>,,,2.0,3.6645704000002297,2.0,5.398150799999712,0.0,1.6307536000003893,<function functiondiffB at 0x0000017A85735620>,<function functiondiffA at 0x0000017A85735510>,<function functiondiffC at 0x0000017A85735B70>,,,,,1883.6697101000009,1919.7757445999996,None,1924.874232600001,None,1921.5241126,None,11,001,2022_Jul_12_1224,2leo,2021.2.3,60.01219447820375,
3,1,Plan how to study for an exam,Stimuli/1A1.jpg,Stimuli/1A2.jpg,Stimuli/1A3.jpg,Stimuli/1B1.jpg,Stimuli/1B2.jpg,Stimuli/1B3.jpg,Stimuli/1C1.jpg,Stimuli/1C2.jpg,Stimuli/1C3.jpg,,,,,0,34,34,1,,,,,,,,1926.1569767,None,1927.1572026000013,None,1933.1573265000006,None,"[-0.378, -0.136]","[0.07, 0.393]","[0.304, -0.26]","[-0.2, 0.346]","[0.399, -0.003]","[-0.203, -0.347]","[-0.377, 0.138]","[0.306, 0.255]","[0.066, -0.395]",,8.943505359999108,11.460137359999862,4.727369660000477,"[-0.3972222222222222, 0.025, -0.1814814814814815]","[0.10092592592592593, 0.3527777777777778, 0.33796296296296297]","[1, 1, 1]","[0, 0, 0]","[0, 0, 0]","[4.720968699999503, 8.93751549999979, 11.453959799999211]",0.005458260000523296,11.459348259999388,['A2'],['B1'],['C1'],['blue'],['salmon'],['yellow'],1946.1899336000006,None,10.0,1.613673199999539,1946.1899336000006,None,1952.1401664000005,None,10.0,1.748678199999631,1950.040136900001,None,10.0,2.0817824999994627,1947.8402750000005,None,10.0,2.1309086000001116,<function functionImportanceC at 0x0000017A85ABDA60>,<function functionImportanceB at 0x0000017A85ABD7B8>,<function functionImportanceA at 0x0000017A85ABD268>,,,0.0,1.997980500000267,-0.0,1.748678199999631,0.0,1.797652699999162,<function functiondiffC at 0x0000017A85ABD0D0>,<function functiondiffB at 0x0000017A857352F0>,<function functiondiffA at 0x0000017A857350D0>,,,,,1934.250638200001,1955.3566320999998,None,1953.8400954000008,None,1957.1732701,None,11,001,2022_Jul_12_1224,2leo,2021.2.3,60.01219447820375,
3,40,Plan to see a sports event ,Stimuli/40A1.jpg,Stimuli/40A2.jpg,Stimuli/40A3.jpg,Stimuli/40B1.jpg,Stimuli/40B2.jpg,Stimuli/40B3.jpg,Stimuli/40C1.jpg,Stimuli/40C2.jpg,Stimuli/40C3.jpg,,,,,0,35,35,40,,,,,,,,1958.6894583000012,None,1959.6896474000005,None,1965.6898242000007,None,"[0.07, 0.393]","[0.304, -0.26]","[-0.378, -0.136]","[0.399, -0.003]","[-0.203, -0.347]","[-0.2, 0.346]","[0.306, 0.255]","[0.066, -0.395]","[-0.377, 0.138]",,16.436319280001044,9.5199802799998,19.903333480000583,"[0.4046296296296296, 0.33611111111111114, -0.3351851851851852]","[0.020370370370370372, -0.2518518518518518, 0.12037037037037036]","[1, 1, 1]","[0, 0, 0]","[0, 0, 0]","[9.516221100000621, 16.432753299999604, 19.8991543000011]",0.0030596800006605918,19.902063679999628,['A2'],['B1'],['C3'],['yellow'],['salmon'],['blue'],1987.3722150000012,None,8.0,1.5806043000011414,1987.3722150000012,None,1989.0391759000013,None,3.0,5.081352900000638,1996.4889240000011,None,10.0,2.8485897999998997,1994.1222612000001,None,3.0,2.215103700000327,<function functionImportanceA at 0x0000017A85ABD730>,<function functionImportanceC at 0x0000017A85ABD9D8>,<function functionImportanceB at 0x0000017A85ABD1E0>,,,7.0,2.0815264000011666,7.0,5.081352900000638,0.0,1.2978004999986297,<function functiondiffC at 0x0000017A85ABDAE8>,<function functiondiffA at 0x0000017A85ABD2F0>,<function functiondiffB at 0x0000017A85ABD510>,,,,,1966.9912716,2005.205382,None,1999.1888287000002,None,2003.0721670000003,None,11,001,2022_Jul_12_1224,2leo,2021.2.3,60.01219447820375,
3,41,Plan how you want to have dinner tonight ,Stimuli/41A1.jpg,Stimuli/41A2.jpg,Stimuli/41A3.jpg,Stimuli/41B1.jpg,Stimuli/41B2.jpg,Stimuli/41B3.jpg,Stimuli/41C1.jpg,Stimuli/41C2.jpg,Stimuli/41C3.jpg,,,,,0,36,36,41,,,,,,,,2005.9882020000005,None,2006.9885732000002,None,2012.988623000001,None,"[-0.378, -0.136]","[0.07, 0.393]","[0.304, -0.26]","[-0.377, 0.138]","[0.306, 0.255]","[0.066, -0.395]","[-0.2, 0.346]","[0.399, -0.003]","[-0.203, -0.347]",,6.487731800001711,4.954714200001035,13.621029600000838,"[0.024074074074074074, -0.362962962962963, -0.22407407407407406]","[-0.36574074074074076, -0.1361111111111111, 0.33611111111111114]","[1, 1, 1]","[0, 0, 0]","[0, 0, 0]","[4.941477800000939, 6.474981400000615, 13.607760700000654]",0.012210200000481564,13.62005180000051,['A1'],['B3'],['C1'],['blue'],['yellow'],['salmon'],2028.4044869000008,None,8.0,2.0304589999996097,2028.4044869000008,None,2030.5214025000005,None,10.0,3.0149645999990753,2033.5379067000013,None,10.0,1.8818219999993744,2035.6045289000012,None,8.0,2.4488318000003346,<function functionImportanceA at 0x0000017A85ABDF28>,<function functionImportanceB at 0x0000017A85ABD488>,<function functionImportanceC at 0x0000017A85ABDD90>,,,0.0,1.5808643000000302,8.0,3.0149645999990753,-0.0,1.7480233999995107,<function functiondiffA at 0x0000017A8539E400>,<function functiondiffB at 0x0000017A85735048>,<function functiondiffC at 0x0000017A85ABD950>,,,,,2014.3119810000007,2039.4710097999996,None,2041.2709992,None,2037.8710972999997,None,11,001,2022_Jul_12_1224,2leo,2021.2.3,60.01219447820375,
3,30,Plan your sport work out for tomorrow,Stimuli/30A1.jpg,Stimuli/30A2.jpg,Stimuli/30A3.jpg,Stimuli/30B1.jpg,Stimuli/30B2.jpg,Stimuli/30B3.jpg,Stimuli/30C1.jpg,Stimuli/30C2.jpg,Stimuli/30C3.jpg,,,,,0,37,37,30,,,,,,,,2043.6872717999995,None,2044.6874628000005,None,2050.68772,None,"[-0.203, -0.347]","[-0.2, 0.346]","[0.399, -0.003]","[0.304, -0.26]","[-0.378, -0.136]","[0.07, 0.393]","[0.066, -0.395]","[-0.377, 0.138]","[0.306, 0.255]",,9.720215500001359,6.75353080000059,4.837382900001103,"[0.35555555555555557, 0.32592592592592595, 0.4444444444444444]","[0.2814814814814815, -0.2462962962962963, 0.011111111111111112]","[1, 1, 1]","[0, 0, 0]","[0, 0, 0]","[4.833834999999453, 6.750375499999791, 9.717127899999468]",0.0024599000007583527,9.71923969999989,['A3'],['B1'],['C3'],['yellow'],['blue'],['salmon'],2062.0537631999996,None,8.0,1.5469127999986085,2062.0537631999996,None,2063.6704563000003,None,9.0,3.947481900000639,2067.6870254000005,None,9.0,1.8150685999989946,2069.4703636000013,None,2.0,2.6317741999991995,<function functionImportanceA at 0x0000017A85ABDE18>,<function functionImportanceB at 0x0000017A85E13AE8>,<function functionImportanceC at 0x0000017A85E131E0>,,,-0.0,1.7648809000002075,0.0,3.947481900000639,-0.0,1.6810887000010553,<function functiondiffC at 0x0000017A85E139D8>,<function functiondiffA at 0x0000017A85ABD620>,<function functiondiffB at 0x0000017A85ABD400>,,,,,2051.8512967000006,2075.9202036999995,None,2072.087067300001,None,2074.1201989,None,11,001,2022_Jul_12_1224,2leo,2021.2.3,60.01219447820375,
3,24,Plan your Monday morning on a workday ,Stimuli/24A1.jpg,Stimuli/24A2.jpg,Stimuli/24A3.jpg,Stimuli/24B1.jpg,Stimuli/24B2.jpg,Stimuli/24B3.jpg,Stimuli/24C1.jpg,Stimuli/24C2.jpg,Stimuli/24C3.jpg,,,,,0,38,38,24,,,,,,,,2077.1034204000007,None,2078.1034839000004,None,2084.103340200001,None,"[0.399, -0.003]","[-0.2, 0.346]","[-0.203, -0.347]","[0.07, 0.393]","[-0.378, -0.136]","[0.304, -0.26]","[0.306, 0.255]","[-0.377, 0.138]","[0.066, -0.395]",,16.99922361999961,7.59961531999943,12.199897520000377,"[-0.38425925925925924, 0.05740740740740741, 0.3592592592592593]","[-0.13703703703703704, -0.3824074074074074, 0.025925925925925925]","[1, 1, 1]","[0, 0, 0]","[0, 0, 0]","[7.590044099999432, 12.190028999999413, 16.99007259999962]",0.008695619999343762,16.998596219998944,['A1'],['B2'],['C3'],['salmon'],['blue'],['yellow'],2102.6859779999995,None,8.0,1.9637542000000394,2102.6859779999995,None,2108.9216770000003,None,9.0,2.2650052000008145,2104.7194213000002,None,9.0,4.197836800000005,2111.2189959999996,None,1.0,3.031665800001065,<function functionImportanceB at 0x0000017A85E13158>,<function functionImportanceA at 0x0000017A85E13488>,<function functionImportanceC at 0x0000017A85E137B8>,,,-0.0,1.6645282999998017,3.0,2.2650052000008145,2.0,3.397526000000653,<function functiondiffB at 0x0000017A85ABDB70>,<function functiondiffC at 0x0000017A85ABD378>,<function functiondiffA at 0x0000017A85ABD840>,,,,,2085.2110947,2114.235950100001,None,2117.6522704,None,2119.9858275999995,None,11,001,2022_Jul_12_1224,2leo,2021.2.3,60.01219447820375,
3,21,Plan your sandwich for lunch,Stimuli/21A1.jpg,Stimuli/21A2.jpg,Stimuli/21A3.jpg,Stimuli/21B1.jpg,Stimuli/21B2.jpg,Stimuli/21B3.jpg,Stimuli/21C1.jpg,Stimuli/21C2.jpg,Stimuli/21C3.jpg,,,,,0,39,39,21,,,,,,,,2121.1689100000003,None,2122.1690545,None,2128.1689733000003,None,"[0.306, 0.255]","[0.066, -0.395]","[-0.377, 0.138]","[0.399, -0.003]","[-0.203, -0.347]","[-0.2, 0.346]","[0.07, 0.393]","[0.304, -0.26]","[-0.378, -0.136]",,3.8936487800001487,9.410576079999373,6.444126680000409,"[0.36018518518518516, 0.0962962962962963, -0.1962962962962963]","[0.31666666666666665, 0.4287037037037037, 0.33425925925925926]","[1, 1, 1]","[0, 0, 0]","[0, 0, 0]","[3.8790353999993386, 6.428995500000383, 9.395474700000705]",0.014188279999871156,9.409661379999307,['A1'],['B3'],['C1'],['yellow'],['salmon'],['blue'],2139.1681709000004,None,10.0,1.5808866999996098,2139.1681709000004,None,2142.9683501,None,10.0,1.7816610999998375,2144.7517009000003,None,8.0,1.6489672000006976,2140.8182616000013,None,10.0,2.1295852000002924,<function functionImportanceC at 0x0000017A85E13268>,<function functionImportanceA at 0x0000017A85E13B70>,<function functionImportanceB at 0x0000017A85E13048>,,,-0.0,1.5312181000008422,0.0,1.7816610999998375,2.0,2.0478798000003735,<function functiondiffC at 0x0000017A85E13598>,<function functiondiffA at 0x0000017A85E132F0>,<function functiondiffB at 0x0000017A85E13950>,,,,,2129.2881104999997,2149.3849425000008,None,2146.3848768999997,None,2147.8349654000012,None,11,001,2022_Jul_12_1224,2leo,2021.2.3,60.01219447820375,
3,2,Plan which ingredients you want to use for cooking dinner today,Stimuli/2A1.jpg,Stimuli/2A2.jpg,Stimuli/2A3.jpg,Stimuli/2B1.jpg,Stimuli/2B2.jpg,Stimuli/2B3.jpg,Stimuli/2C1.jpg,Stimuli/2C2.jpg,Stimuli/2C3.jpg,,,,,0,40,40,2,,,,,,,,2150.952041800001,None,2151.951294300001,None,2157.9514424999998,None,"[0.306, 0.255]","[-0.377, 0.138]","[0.066, -0.395]","[0.399, -0.003]","[-0.2, 0.346]","[-0.203, -0.347]","[0.07, 0.393]","[-0.378, -0.136]","[0.304, -0.26]",,3.486946800014266,8.95372780001344,7.18738930001382,"[-0.4064814814814815, 0.3287037037037037, 0.3592592592592593]","[0.11203703703703703, -0.24814814814814815, -0.05]","[1, 1, 1]","[0, 0, 0]","[0, 0, 0]","[3.4828299000000698, 7.1826987999993435, 8.949472700000115]",0.0035737000143853948,8.952781300013157,['A2'],['B1'],['C3'],['blue'],['salmon'],['yellow'],2173.4340735000005,None,10.0,1.64676529999997,2173.4340735000005,None,2178.6338629,None,10.0,2.915025100001003,2183.7506024000013,None,8.0,6.4981688000007125,2175.7342188000002,None,10.0,2.380960300000879,<function functionImportanceC at 0x0000017A85E13510>,<function functionImportanceA at 0x0000017A85E13378>,<function functionImportanceB at 0x0000017A85E13620>,,,-0.0,2.447797700000592,-0.0,2.915025100001003,2.0,2.3814037000011012,<function functiondiffA at 0x0000017A85E13A60>,<function functiondiffC at 0x0000017A85E13EA0>,<function functiondiffB at 0x0000017A85E13D90>,,,,,2164.0216922,2192.667228600001,None,2189.6005941000003,None,2187.2837583,None,11,001,2022_Jul_12_1224,2leo,2021.2.3,60.01219447820375,
3,17,Plan a day in Barcelona with a friend who is new to the city,Stimuli/17A1.jpg,Stimuli/17A2.jpg,Stimuli/17A3.jpg,Stimuli/17B1.jpg,Stimuli/17B2.jpg,Stimuli/17B3.jpg,Stimuli/17C1.jpg,Stimuli/17C2.jpg,Stimuli/17C3.jpg,,,,,0,41,41,17,,,,,,,,2193.7343619000003,None,2194.7335759,None,2200.733613800001,None,"[-0.377, 0.138]","[0.066, -0.395]","[0.306, 0.255]","[-0.378, -0.136]","[0.304, -0.26]","[0.07, 0.393]","[-0.2, 0.346]","[-0.203, -0.347]","[0.399, -0.003]",,3.9570043200001237,11.207223819999854,8.173856620000151,"[0.2518518518518518, -0.17314814814814813, 0.3296296296296296]","[0.22777777777777777, -0.2972222222222222, -0.20833333333333334]","[1, 1, 1]","[0, 0, 0]","[0, 0, 0]","[3.943580600000132, 8.160054399999353, 11.193674799998917]",0.012769520000802004,11.206178020000152,['A3'],['B2'],['C2'],['blue'],['salmon'],['yellow'],2213.59972,None,9.0,2.2302015999994182,2213.59972,None,2219.583128800001,None,10.0,2.5154018000012,2215.9830211000008,None,2.0,3.597912900000665,2222.066199500001,None,10.0,2.0983239999986836,<function functionImportanceB at 0x0000017A85E13400>,<function functionImportanceA at 0x0000017A85E13F28>,<function functionImportanceC at 0x0000017A860DA048>,,,-0.0,1.6476439999987633,2.0,2.5154018000012,0.0,2.5143806000014592,<function functiondiffB at 0x0000017A85E136A8>,<function functiondiffC at 0x0000017A860DA950>,<function functiondiffA at 0x0000017A85E13E18>,,,,,2201.9208830999996,2224.1329692,None,2226.6493116,None,2228.7328362000007,None,11,001,2022_Jul_12_1224,2leo,2021.2.3,60.01219447820375,
3,27,Plan what festival to visit with your friends,Stimuli/27A1.jpg,Stimuli/27A2.jpg,Stimuli/27A3.jpg,Stimuli/27B1.jpg,Stimuli/27B2.jpg,Stimuli/27B3.jpg,Stimuli/27C1.jpg,Stimuli/27C2.jpg,Stimuli/27C3.jpg,,,,,0,42,42,27,,,,,,,,2229.9000701000004,None,2230.8992940000007,None,2236.8993149,None,"[-0.203, -0.347]","[-0.2, 0.346]","[0.399, -0.003]","[0.304, -0.26]","[-0.378, -0.136]","[0.07, 0.393]","[0.066, -0.395]","[-0.377, 0.138]","[0.306, 0.255]",,13.392336419998173,17.376014619998386,9.126586019998285,"[0.362962962962963, -0.1787037037037037, 0.27685185185185185]","[0.23703703703703705, -0.4, -0.24537037037037038]","[1, 1, 1]","[0, 0, 0]","[0, 0, 0]","[9.111937100000432, 13.37839890000032, 17.361749800000325]",0.013523619998522918,17.37523031999808,['A1'],['B1'],['C3'],['yellow'],['blue'],['salmon'],2255.848581,None,7.0,1.9804363000002922,2255.848581,None,2264.7651333000013,None,10.0,1.9648942000003444,2261.782009800001,None,1.0,2.981940699999541,2257.8986564000006,None,8.0,3.864528199999768,<function functionImportanceC at 0x0000017A857356A8>,<function functionImportanceB at 0x0000017A8539E9D8>,<function functionImportanceA at 0x0000017A8539ED08>,,,-0.0,1.181275500000993,1.0,1.9648942000003444,3.0,1.7814096999991307,<function functiondiffC at 0x0000017A85E138C8>,<function functiondiffB at 0x0000017A85E130D0>,<function functiondiffA at 0x0000017A85ABD598>,,,,,2238.0029727,2269.3817266000005,None,2266.7316759000005,None,2271.181674700001,None,11,001,2022_Jul_12_1224,2leo,2021.2.3,60.01219447820375,
3,44,Plan a party at your place,Stimuli/44A1.jpg,Stimuli/44A2.jpg,Stimuli/44A3.jpg,Stimuli/44B1.jpg,Stimuli/44B2.jpg,Stimuli/44B3.jpg,Stimuli/44C1.jpg,Stimuli/44C2.jpg,Stimuli/44C3.jpg,,,,,0,43,43,44,,,,,,,,2271.8825300000008,None,2272.881696800001,None,2278.8814340999998,None,"[0.306, 0.255]","[0.066, -0.395]","[-0.377, 0.138]","[0.399, -0.003]","[-0.203, -0.347]","[-0.2, 0.346]","[0.07, 0.393]","[0.304, -0.26]","[-0.378, -0.136]",,3.18919077999999,11.405644279999251,7.106247779998739,"[0.07407407407407407, 0.33796296296296297, 0.43796296296296294]","[-0.3972222222222222, -0.275, -0.03518518518518519]","[1, 1, 1]","[0, 0, 0]","[0, 0, 0]","[3.1768448000002536, 7.093398499999239, 11.393092899999829]",0.01181647999874258,11.404803879999236,['A2'],['B1'],['C2'],['yellow'],['blue'],['salmon'],2291.8807565999996,None,8.0,1.8800969999992958,2291.8807565999996,None,2297.181067200001,None,10.0,1.8650315000013507,2295.6976937,None,10.0,1.4822232999995322,2293.8310961999996,None,10.0,1.8482045999990078,<function functionImportanceC at 0x0000017A860DA1E0>,<function functionImportanceB at 0x0000017A860DA840>,<function functionImportanceA at 0x0000017A860DA6A8>,,,1.0,2.1640354999999545,0.0,1.8650315000013507,3.0,1.7643699999989622,<function functiondiffA at 0x0000017A85E13840>,<function functiondiffB at 0x0000017A85E13BF8>,<function functiondiffC at 0x0000017A860DAB70>,,,,,2280.003345500001,2301.2475962999997,None,2303.014162200001,None,2299.0475444000003,None,11,001,2022_Jul_12_1224,2leo,2021.2.3,60.01219447820375,
3,10,Plan a restaurant visit with your family on the weekend ,Stimuli/10A1.jpg,Stimuli/10A2.jpg,Stimuli/10A3.jpg,Stimuli/10B1.jpg,Stimuli/10B2.jpg,Stimuli/10B3.jpg,Stimuli/10C1.jpg,Stimuli/10C2.jpg,Stimuli/10C3.jpg,,,,,0,44,44,10,,,,,,,,2304.215176400001,None,2305.214090700001,None,2311.2141494000007,None,"[0.066, -0.395]","[0.306, 0.255]","[-0.377, 0.138]","[0.304, -0.26]","[0.07, 0.393]","[-0.378, -0.136]","[-0.203, -0.347]","[0.399, -0.003]","[-0.2, 0.346]",,25.19511964000958,12.628840940009468,2.395778740010428,"[-0.16574074074074074, 0.0787037037037037, -0.32037037037037036]","[0.31296296296296294, 0.36944444444444446, 0.0824074074074074]","[1, 1, 1]","[0, 0, 0]","[0, 0, 0]","[2.3816263000007893, 12.615022399999361, 25.181478700000298]",0.013048240009084111,25.194079540009625,['A3'],['B2'],['C3'],['salmon'],['blue'],['yellow'],2340.7964429000003,None,6.0,2.731061899999986,2340.7964429000003,None,2343.7129922000004,None,10.0,2.681282799998371,2350.662962300001,None,10.0,4.165160900000046,2346.2796259000006,None,10.0,1.6316637999989325,<function functionImportanceA at 0x0000017A860DAEA0>,<function functionImportanceC at 0x0000017A860DAD90>,<function functionImportanceB at 0x0000017A860DA0D0>,,,8.0,1.8819328000008682,3.0,2.681282799998371,0.0,2.5979257999988477,<function functiondiffB at 0x0000017A860DA730>,<function functiondiffC at 0x0000017A860DAD08>,<function functiondiffA at 0x0000017A860DA400>,,,,,2315.1500498000005,2352.879448200001,None,2354.7127468,None,2356.9294339999997,None,11,001,2022_Jul_12_1224,2leo,2021.2.3,60.01219447820375,
