Condition,N_Scenario,written_scenario,ImageA1,ImageA2,ImageA3,ImageB1,ImageB2,ImageB3,ImageC1,ImageC2,ImageC3,trials_2.thisRepN,trials_2.thisTrialN,trials_2.thisN,trials_2.thisIndex,trial.thisRepN,trial.thisTrialN,trial.thisN,trial.thisIndex,button_2.started,button_2.stopped,button_2.numClicks,button_2.timesOn,button_2.timesOff,text.started,text.stopped,fixationcross1_started,fixationcross1_stopped,Scenario_started,Scenario_stopped,fixationcross2_started,fixationcross2_stopped,A1pos,A2pos,A3pos,B1pos,B2pos,B3pos,C1pos,C2pos,C3pos,﻿Imagesdecision_started,decisiontimeA,decisiontimeB,decisiontimeC,mouse_x,mouse_y,mouse_leftButton,mouse_midButton,mouse_rightButton,mouse_time,mouse_started,mouse_stopped,clicked_optionA,clicked_optionB,clicked_optionC,colour_category_A,colour_category_B,colour_category_C,question_confidence_started,question_confidence_stopped,slider_confidence_response,slider_confidence_rt,slider_confidence_started,slider_confidence_stopped,question_valueB_started,question_valueB_stopped,slider_valueB_response,slider_valueB_rt,question_valueC_started,question_valueC_stopped,slider_valueC_response,slider_valueC_rt,question_valueA_started,question_valueA_stopped,slider_valueA_response,slider_valueA_rt,Importance_First,Importance_Second,Importance_Third,question_diff_started,question_diff_stopped,slider_diffA_response,slider_diffA_rt,slider_diffB_response,slider_diffB_rt,slider_diffC_response,slider_diffC_rt,diff_First,diff_Second,diff_Third,button_3_started,button_3_stopped,text_2_started,text_2_stopped,Imagesdecision_started,question_diffB_started,question_diffB_stopped,question_diffC_started,question_diffC_stopped,question_diffA_started,question_diffA_stopped,participant,session,date,expName,psychopyVersion,frameRate,
3,2,Plan a party to celebrate your birthday,Stimuli/2A1t.jpg,Stimuli/2A2t.jpg,Stimuli/2A3t.jpg,Stimuli/2B1t.jpg,Stimuli/2B2t.jpg,Stimuli/2B3t.jpg,Stimuli/2C1t.jpg,Stimuli/2C2t.jpg,Stimuli/2C3t.jpg,0,0,0,0,,,,,22.933643500000017,None,1,[9.237503300000299],[9.237507499999992],22.933643500000017,None,93.24515930000007,None,94.25517549999995,None,100.25499219999983,None,"[0.304, -0.26]","[0.07, 0.393]","[-0.378, -0.136]","[-0.203, -0.347]","[0.399, -0.003]","[-0.2, 0.346]","[0.066, -0.395]","[0.306, 0.255]","[-0.377, 0.138]",104.24866699999984,33.538532979993306,41.80550167999354,38.70593307999343,"[0.34814814814814815, -0.43148148148148147, 0.4462962962962963]","[-0.26944444444444443, 0.1537037037037037, -0.044444444444444446]","[1, 1, 1]","[0, 0, 0]","[0, 0, 0]","[33.535949099999925, 38.70260420000022, 41.80255360000001]",0.00215997999339379,41.80442617999324,['A1'],['B2'],['C3'],['blue'],['salmon'],['yellow'],146.5201907999999,None,8.0,9.129555799999707,146.5201907999999,None,157.30985580000015,None,6.0,10.397534800000358,166.15303330000006,None,7.0,4.731418200000007,172.1913872,None,9.0,3.948538499999813,<function functionImportanceBt at 0x00000280D36B1E18>,<function functionImportanceCt at 0x00000280E2C7FD90>,<function functionImportanceAt at 0x00000280D6CC3268>,194.58586920000016,None,3.0,3.948538499999813,6.0,5.549072499999966,3.0,3.681292200000371,<function functiondiffAt at 0x00000280820A0BF8>,<function functiondiffBt at 0x00000280820A0048>,<function functiondiffCt at 0x00000280820A0950>,,,,,,,,,,,,10,001,2022_Jul_12_1045,2leo,2021.2.3,60.00790904232768,
3,3,Plan one week of vacation,Stimuli/3A1t.jpg,Stimuli/3A2t.jpg,Stimuli/3A3t.jpg,Stimuli/3B1t.jpg,Stimuli/3B2t.jpg,Stimuli/3B3t.jpg,Stimuli/3C1t.jpg,Stimuli/3C2t.jpg,Stimuli/3C3t.jpg,0,1,1,1,,,,,,,,,,,,197.78557749999982,None,198.78566869999986,None,204.78568600000017,None,"[0.306, 0.255]","[0.066, -0.395]","[-0.377, 0.138]","[0.399, -0.003]","[-0.203, -0.347]","[-0.2, 0.346]","[0.07, 0.393]","[0.304, -0.26]","[-0.378, -0.136]",210.8908664999999,49.12388681998891,47.374247819988796,44.22427481998875,"[-0.35648148148148145, 0.3768518518518518, 0.025]","[-0.175, 0.04351851851851852, -0.35648148148148145]","[1, 1, 1]","[0, 0, 0]","[0, 0, 0]","[44.20857249999972, 47.35901459999968, 49.108821499999976]",0.014569619988833438,49.12312201998884,['A2'],['B1'],['C3'],['yellow'],['salmon'],['blue'],260.46728399999984,None,8.0,4.38074080000024,260.46728399999984,None,282.16674520000015,None,8.0,6.165036300000338,274.63372040000013,None,4.0,7.231814900000245,266.8208860999998,None,9.0,8.23114859999987,<function functionImportanceAt at 0x00000280D8262E18>,<function functionImportanceCt at 0x00000280DFFDFF28>,<function functionImportanceBt at 0x00000280E0A379D8>,302.04966049999985,None,4.0,8.23114859999987,2.0,6.497719999999845,6.0,8.280689299999722,<function functiondiffCt at 0x00000280820A0620>,<function functiondiffBt at 0x00000280820A0510>,<function functiondiffAt at 0x00000280820A09D8>,,,,,,,,,,,,10,001,2022_Jul_12_1045,2leo,2021.2.3,60.00790904232768,
3,38,Plan how you want to go for a run,Stimuli/38A1.jpg,Stimuli/38A2.jpg,Stimuli/38A3.jpg,Stimuli/38B1.jpg,Stimuli/38B2.jpg,Stimuli/38B3.jpg,Stimuli/38C1.jpg,Stimuli/38C2.jpg,Stimuli/38C3.jpg,,,,,0,0,0,38,,,,,,,,368.37503879999986,None,369.36454969999977,None,375.3644733000001,None,"[-0.203, -0.347]","[0.399, -0.003]","[-0.2, 0.346]","[0.304, -0.26]","[0.07, 0.393]","[-0.378, -0.136]","[0.066, -0.395]","[0.306, 0.255]","[-0.377, 0.138]",,28.793361519999053,26.060345919999236,40.39363431999891,"[0.27314814814814814, 0.39444444444444443, 0.07314814814814814]","[-0.24814814814814815, 0.007407407407407408, -0.3685185185185185]","[1, 0, 1]","[0, 0, 0]","[0, 1, 0]","[26.052893399999903, 28.786051399999906, 40.38596549999966]",0.006744419998994999,40.39248321999912,['A2'],['B1'],['C1'],['yellow'],['salmon'],['blue'],417.5297980999999,None,8.0,4.612451899999996,417.5297980999999,None,435.6293568000001,None,6.0,2.9982720999996673,429.3628914000001,None,6.0,6.331257800000003,422.2798134999998,None,8.0,7.014255000000048,<function functionImportanceA at 0x00000280820A0F28>,<function functionImportanceC at 0x00000280821DFD08>,<function functionImportanceB at 0x00000280E2C7F9D8>,,,2.0,2.7477405999998155,1.0,5.430607800000416,6.0,7.014255000000048,<function functiondiffB at 0x00000280E2C7FE18>,<function functiondiffC at 0x00000280821DF9D8>,<function functiondiffA at 0x00000280E2C7FBF8>,305.28282579999996,None,305.28282579999996,None,376.66092290000006,438.57921540000007,None,444.04587919999994,None,446.87915889999977,None,10,001,2022_Jul_12_1045,2leo,2021.2.3,60.00790904232768,
3,12,Plan the ingredients to mix yourself a cocktail,Stimuli/12A1.jpg,Stimuli/12A2.jpg,Stimuli/12A3.jpg,Stimuli/12B1.jpg,Stimuli/12B2.jpg,Stimuli/12B3.jpg,Stimuli/12C1.jpg,Stimuli/12C2.jpg,Stimuli/12C3.jpg,,,,,0,1,1,12,,,,,,,,449.1455854999999,None,450.1456616999999,None,456.1455943000001,None,"[-0.2, 0.346]","[0.399, -0.003]","[-0.203, -0.347]","[-0.377, 0.138]","[0.306, 0.255]","[0.066, -0.395]","[-0.378, -0.136]","[0.07, 0.393]","[0.304, -0.26]",,35.49272697999959,45.15931287999956,48.02612417999944,"[-0.18518518518518517, 0.3, 0.24722222222222223]","[0.34444444444444444, 0.2824074074074074, -0.2675925925925926]","[1, 1, 1]","[0, 0, 0]","[0, 0, 0]","[35.47798260000036, 45.14420850000033, 48.01067379999995]",0.01432667999961268,48.02491757999951,['A1'],['B2'],['C3'],['yellow'],['blue'],['salmon'],505.8272637,None,6.0,12.046637700000247,505.8272637,None,526.4270655,None,4.0,3.0649310999997397,522.5435484,None,7.0,3.8652428000000327,517.9450539,None,3.0,4.581352899999729,<function functionImportanceA at 0x00000280820A0598>,<function functionImportanceC at 0x00000280820A0EA0>,<function functionImportanceB at 0x00000280820A06A8>,,,4.0,6.39787060000026,4.0,6.414010399999825,6.0,4.581352899999729,<function functiondiffB at 0x00000280820A0268>,<function functiondiffA at 0x00000280820A0AE8>,<function functiondiffC at 0x00000280D05431E0>,,,,,457.3311193999998,529.4769762999999,None,542.3265425999998,None,535.9100484999999,None,10,001,2022_Jul_12_1045,2leo,2021.2.3,60.00790904232768,
3,42,Plan how to draw a painting ,Stimuli/42A1.jpg,Stimuli/42A2.jpg,Stimuli/42A3.jpg,Stimuli/42B1.jpg,Stimuli/42B2.jpg,Stimuli/42B3.jpg,Stimuli/42C1.jpg,Stimuli/42C2.jpg,Stimuli/42C3.jpg,,,,,0,2,2,42,,,,,,,,545.7350151999999,None,546.6932453,None,552.6927672000002,None,"[0.07, 0.393]","[-0.378, -0.136]","[0.304, -0.26]","[0.306, 0.255]","[-0.377, 0.138]","[0.066, -0.395]","[0.399, -0.003]","[-0.2, 0.346]","[-0.203, -0.347]",,27.965829359999134,56.06531155999937,53.96553295999911,"[-0.45740740740740743, 0.40925925925925927, 0.08981481481481482]","[-0.06296296296296296, 0.05277777777777778, -0.3398148148148148]","[1, 1, 1]","[0, 0, 0]","[0, 0, 0]","[27.96392960000003, 53.96320199999991, 56.06307560000005]",0.0013909599992985022,56.06421665999915,['A2'],['B3'],['C1'],['salmon'],['blue'],['yellow'],610.5579478,None,8.0,2.2637784999997166,610.5579478,None,617.1911371000001,None,8.0,4.381619000000228,621.5910558,None,6.0,3.831632900000386,613.0413334999998,None,6.0,4.281105100000332,<function functionImportanceA at 0x00000280820A0378>,<function functionImportanceB at 0x00000280820A0840>,<function functionImportanceC at 0x00000280821DF598>,,,3.0,3.8975320000004103,4.0,5.864295600000332,6.0,4.281105100000332,<function functiondiffA at 0x00000280821DFD90>,<function functiondiffB at 0x00000280821DF730>,<function functiondiffC at 0x00000280821DFF28>,,,,,554.0105061999998,629.3075724999999,None,635.2073830999998,None,625.4409122000002,None,10,001,2022_Jul_12_1045,2leo,2021.2.3,60.00790904232768,
3,22,Plan a beach day with your friends,Stimuli/22A1.jpg,Stimuli/22A2.jpg,Stimuli/22A3.jpg,Stimuli/22B1.jpg,Stimuli/22B2.jpg,Stimuli/22B3.jpg,Stimuli/22C1.jpg,Stimuli/22C2.jpg,Stimuli/22C3.jpg,,,,,0,3,3,22,,,,,,,,637.7906521999998,None,638.7907264,None,644.7906899,None,"[0.399, -0.003]","[-0.2, 0.346]","[-0.203, -0.347]","[0.306, 0.255]","[-0.377, 0.138]","[0.066, -0.395]","[0.07, 0.393]","[-0.378, -0.136]","[0.304, -0.26]",,19.234952639999392,37.901474439999674,10.285775239999566,"[-0.37222222222222223, -0.1962962962962963, -0.36666666666666664]","[-0.10648148148148148, 0.29444444444444445, 0.11666666666666667]","[1, 1, 1]","[0, 0, 0]","[0, 0, 0]","[10.274454000000333, 19.22422940000024, 37.89045950000036]",0.010228539999388886,37.900406339999336,['A2'],['B2'],['C2'],['yellow'],['blue'],['salmon'],684.3394308000002,None,9.0,2.1970664000000397,684.3394308000002,None,690.1559815999999,None,6.0,3.8156276999998227,694.0222703,None,9.0,8.26490750000039,686.6061633999998,None,7.0,3.54830340000035,<function functionImportanceA at 0x00000280821DF048>,<function functionImportanceB at 0x00000280802B1BF8>,<function functionImportanceC at 0x00000280802B1AE8>,,,2.0,2.331026500000007,6.0,3.9145386999998664,1.0,3.54830340000035,<function functiondiffC at 0x00000280821DF840>,<function functiondiffB at 0x00000280821DF8C8>,<function functiondiffA at 0x00000280820A0C80>,,,,,645.964367,705.4056655999998,None,702.2556285999999,None,709.3387757,None,10,001,2022_Jul_12_1045,2leo,2021.2.3,60.00790904232768,
3,6,Plan your wedding,Stimuli/6A1.jpg,Stimuli/6A2.jpg,Stimuli/6A3.jpg,Stimuli/6B1.jpg,Stimuli/6B2.jpg,Stimuli/6B3.jpg,Stimuli/6C1.jpg,Stimuli/6C2.jpg,Stimuli/6C3.jpg,,,,,0,4,4,6,,,,,,,,711.1886498999997,None,712.1888877000001,None,718.1886101999999,None,"[-0.2, 0.346]","[0.399, -0.003]","[-0.203, -0.347]","[-0.378, -0.136]","[0.07, 0.393]","[0.304, -0.26]","[-0.377, 0.138]","[0.306, 0.255]","[0.066, -0.395]",,28.55019105999054,39.89971795999054,52.28320625999049,"[-0.16111111111111112, -0.3675925925925926, 0.3314814814814815]","[-0.2657407407407407, -0.07407407407407407, 0.21203703703703702]","[1, 1, 1]","[0, 0, 0]","[0, 0, 0]","[28.543657600000188, 39.89308990000018, 52.27619700000014]",0.005916459990658041,52.282062959990526,['A3'],['B1'],['C2'],['yellow'],['blue'],['salmon'],776.1369675000001,None,6.0,3.114025800000036,776.1369675000001,None,780.9701046999999,None,4.0,6.380782499999896,791.9201401,None,2.0,4.981519399999797,786.8864653999999,None,6.0,4.964894400000048,<function functionImportanceB at 0x00000280820A0488>,<function functionImportanceA at 0x00000280820A0A60>,<function functionImportanceC at 0x00000280821DF6A8>,,,3.0,3.5312003000003642,3.0,4.597820899999988,6.0,4.964894400000048,<function functiondiffB at 0x00000280821DFE18>,<function functiondiffC at 0x00000280802B1C80>,<function functiondiffA at 0x00000280821DFBF8>,,,,,723.3952837000002,796.1031969000001,None,800.6863797000001,None,804.1696191999999,None,10,001,2022_Jul_12_1045,2leo,2021.2.3,60.00790904232768,
3,44,Plan a party at your place,Stimuli/44A1.jpg,Stimuli/44A2.jpg,Stimuli/44A3.jpg,Stimuli/44B1.jpg,Stimuli/44B2.jpg,Stimuli/44B3.jpg,Stimuli/44C1.jpg,Stimuli/44C2.jpg,Stimuli/44C3.jpg,,,,,0,5,5,44,,,,,,,,806.9027007999998,None,807.9029645,None,813.9026846000002,None,"[0.304, -0.26]","[-0.378, -0.136]","[0.07, 0.393]","[-0.203, -0.347]","[-0.2, 0.346]","[0.399, -0.003]","[0.066, -0.395]","[-0.377, 0.138]","[0.306, 0.255]",,21.77191367999967,17.08910627999967,32.255642879999414,"[0.35, -0.37962962962962965, -0.3851851851851852]","[-0.01574074074074074, -0.17407407407407408, 0.09259259259259259]","[1, 1, 1]","[0, 0, 0]","[0, 0, 0]","[17.08435159999999, 21.767442200000005, 32.25060779999967]",0.003914179999355838,32.25450217999969,['A2'],['B3'],['C2'],['blue'],['yellow'],['salmon'],847.8350178000001,None,9.0,5.146820800000114,847.8350178000001,None,856.6849690999998,None,8.0,5.898246499999914,853.0849773999998,None,6.0,3.5647870999996485,862.5680600999999,None,7.0,2.3150556999999026,<function functionImportanceC at 0x00000280802B1A60>,<function functionImportanceB at 0x00000280802B1EA0>,<function functionImportanceA at 0x00000280802B1D90>,,,1.0,2.764796899999965,1.0,4.281394499999806,4.0,2.3150556999999026,<function functiondiffC at 0x00000280821DF378>,<function functiondiffA at 0x00000280821DFC80>,<function functiondiffB at 0x00000280821DF158>,,,,,815.1000236999998,872.1178571999999,None,864.8514206999998,None,869.3346668999998,None,10,001,2022_Jul_12_1045,2leo,2021.2.3,60.00790904232768,
3,5,Plan a birthday party for your younger self when you turn eight,Stimuli/5A1.jpg,Stimuli/5A2.jpg,Stimuli/5A3.jpg,Stimuli/5B1.jpg,Stimuli/5B2.jpg,Stimuli/5B3.jpg,Stimuli/5C1.jpg,Stimuli/5C2.jpg,Stimuli/5C3.jpg,,,,,0,6,6,5,,,,,,,,875.9177285999999,None,876.9175184000001,None,882.9173860999999,None,"[0.304, -0.26]","[-0.378, -0.136]","[0.07, 0.393]","[0.066, -0.395]","[-0.377, 0.138]","[0.306, 0.255]","[-0.203, -0.347]","[-0.2, 0.346]","[0.399, -0.003]",,55.312138359988694,33.0628127599889,58.7955763599889,"[-0.30648148148148147, 0.1111111111111111, 0.4166666666666667]","[0.11851851851851852, 0.40185185185185185, -0.03425925925925926]","[1, 1, 1]","[0, 0, 0]","[0, 0, 0]","[33.04619790000015, 55.29574899999989, 58.778669900000295]",0.01580405998902279,58.794360259988935,['A3'],['B2'],['C3'],['salmon'],['blue'],['yellow'],948.0321607000001,None,4.0,4.679835299999922,948.0321607000001,None,954.2821177999999,None,6.0,6.880949599999894,960.3152547999998,None,3.0,3.448304900000039,965.7487059,None,3.0,7.115039600000273,<function functionImportanceB at 0x00000280802B1D08>,<function functionImportanceC at 0x00000280802B19D8>,<function functionImportanceA at 0x00000280802B1F28>,,,7.0,4.797693900000013,4.0,4.914518700000372,7.0,7.115039600000273,<function functiondiffA at 0x00000280802B1598>,<function functiondiffB at 0x00000280802B17B8>,<function functiondiffC at 0x00000280802B16A8>,,,,,888.7891156000001,975.4318137,None,980.1149208000002,None,971.0323161000001,None,10,001,2022_Jul_12_1045,2leo,2021.2.3,60.00790904232768,
3,32,Plan how you want to relax after a workday,Stimuli/32A1.jpg,Stimuli/32A2.jpg,Stimuli/32A3.jpg,Stimuli/32B1.jpg,Stimuli/32B2.jpg,Stimuli/32B3.jpg,Stimuli/32C1.jpg,Stimuli/32C2.jpg,Stimuli/32C3.jpg,,,,,0,7,7,32,,,,,,,,982.0647629999999,None,983.0650169,None,989.064946,None,"[-0.2, 0.346]","[0.399, -0.003]","[-0.203, -0.347]","[-0.377, 0.138]","[0.306, 0.255]","[0.066, -0.395]","[-0.378, -0.136]","[0.07, 0.393]","[0.304, -0.26]",,43.586491879996174,49.220064179995916,18.921106679995773,"[0.1398148148148148, 0.4398148148148148, -0.42962962962962964]","[0.4083333333333333, -0.010185185185185186, 0.14074074074074075]","[1, 1, 1]","[0, 0, 0]","[0, 0, 0]","[18.914969500000097, 43.58083839999972, 49.214258199999676]",0.005105779996029014,49.21915067999589,['A2'],['B1'],['C2'],['blue'],['yellow'],['salmon'],1041.8964775999998,None,6.0,2.446427400000175,1041.8964775999998,None,1049.2965926000002,None,6.0,4.9983234999999695,1044.4306679000001,None,7.0,4.030918500000098,1054.6629521999998,None,4.0,4.565310899999986,<function functionImportanceC at 0x00000280802B1840>,<function functionImportanceB at 0x00000280802B1158>,<function functionImportanceA at 0x00000280802B1268>,,,4.0,5.897482200000013,6.0,3.164625800000067,2.0,4.565310899999986,<function functiondiffA at 0x00000280821DFAE8>,<function functiondiffC at 0x00000280821DF268>,<function functiondiffB at 0x00000280821DF950>,,,,,992.2153496999999,1066.7627613999998,None,1063.9294888,None,1058.3796014,None,10,001,2022_Jul_12_1045,2leo,2021.2.3,60.00790904232768,
3,13,Plan a romantic date this weekend,Stimuli/13A1.jpg,Stimuli/13A2.jpg,Stimuli/13A3.jpg,Stimuli/13B1.jpg,Stimuli/13B2.jpg,Stimuli/13B3.jpg,Stimuli/13C1.jpg,Stimuli/13C2.jpg,Stimuli/13C3.jpg,,,,,0,8,8,13,,,,,,,,1069.2625354000002,None,1070.2626153,None,1076.2623549999998,None,"[0.304, -0.26]","[-0.378, -0.136]","[0.07, 0.393]","[0.066, -0.395]","[-0.377, 0.138]","[0.306, 0.255]","[-0.203, -0.347]","[-0.2, 0.346]","[0.399, -0.003]",,46.19385849999935,38.527871399999185,32.161503199999515,"[-0.16203703703703703, 0.06388888888888888, -0.32314814814814813]","[0.32222222222222224, -0.3787037037037037, -0.10185185185185185]","[1, 1, 1]","[0, 0, 0]","[0, 0, 0]","[32.145008199999666, 38.51176179999993, 46.17789979999998]",0.01543699999956516,46.193198599999505,['A2'],['B1'],['C2'],['yellow'],['salmon'],['blue'],1124.1608344,None,8.0,3.48072110000021,1124.1608344,None,1127.7777612999998,None,6.0,5.364432699999725,1136.74411,None,8.0,3.0151214000002255,1133.1443702000001,None,2.0,3.631654499999968,<function functionImportanceB at 0x00000280802B1730>,<function functionImportanceA at 0x00000280802B1048>,<function functionImportanceC at 0x00000280802B11E0>,,,5.0,5.398095999999896,3.0,3.7977576000002955,7.0,3.631654499999968,<function functiondiffC at 0x00000280821DFB70>,<function functiondiffB at 0x00000280821DFA60>,<function functiondiffA at 0x00000280802B1E18>,,,,,1077.4994476000002,1145.1106037999998,None,1139.7274352999998,None,1148.9106502999998,None,10,001,2022_Jul_12_1045,2leo,2021.2.3,60.00790904232768,
3,17,Plan a day in Barcelona with a friend who is new to the city,Stimuli/17A1.jpg,Stimuli/17A2.jpg,Stimuli/17A3.jpg,Stimuli/17B1.jpg,Stimuli/17B2.jpg,Stimuli/17B3.jpg,Stimuli/17C1.jpg,Stimuli/17C2.jpg,Stimuli/17C3.jpg,,,,,0,9,9,17,,,,,,,,1153.8269160999998,None,1154.826841,None,1160.8265891,None,"[-0.378, -0.136]","[0.304, -0.26]","[0.07, 0.393]","[-0.2, 0.346]","[-0.203, -0.347]","[0.399, -0.003]","[-0.377, 0.138]","[0.066, -0.395]","[0.306, 0.255]",,43.86260687999993,9.863242279999668,42.12973617999978,"[-0.22777777777777777, 0.08425925925925926, 0.12962962962962962]","[-0.31574074074074077, -0.3888888888888889, 0.4101851851851852]","[1, 1, 1]","[0, 0, 0]","[0, 0, 0]","[9.846571099999892, 42.11259629999995, 43.84611660000019]",0.015891479999936564,43.86178547999998,['A3'],['B2'],['C2'],['salmon'],['yellow'],['blue'],1206.3420631,None,6.0,4.0639148000000205,1206.3420631,None,1219.5086381,None,9.0,2.031548599999951,1216.0920686,None,4.0,3.398397699999805,1210.5088672000002,None,2.0,5.597791200000302,<function functionImportanceA at 0x00000280802B1620>,<function functionImportanceC at 0x00000280821DF488>,<function functionImportanceB at 0x00000280802B1B70>,,,8.0,4.381428900000174,1.0,3.3146113000002515,4.0,5.597791200000302,<function functiondiffA at 0x00000280802B1510>,<function functiondiffC at 0x0000028080C170D0>,<function functiondiffB at 0x00000280802B1400>,,,,,1162.0115462999997,1229.608327,None,1225.908438,None,1221.5252099999998,None,10,001,2022_Jul_12_1045,2leo,2021.2.3,60.00790904232768,
3,10,Plan a restaurant visit with your family on the weekend ,Stimuli/10A1.jpg,Stimuli/10A2.jpg,Stimuli/10A3.jpg,Stimuli/10B1.jpg,Stimuli/10B2.jpg,Stimuli/10B3.jpg,Stimuli/10C1.jpg,Stimuli/10C2.jpg,Stimuli/10C3.jpg,,,,,0,10,10,10,,,,,,,,1232.4414928,None,1233.4416394999998,None,1239.4415628000002,None,"[0.07, 0.393]","[-0.378, -0.136]","[0.304, -0.26]","[0.399, -0.003]","[-0.2, 0.346]","[-0.203, -0.347]","[0.306, 0.255]","[-0.377, 0.138]","[0.066, -0.395]",,24.957335919993056,41.37392711999337,18.77512661999299,"[0.046296296296296294, 0.09814814814814815, -0.19814814814814816]","[-0.362962962962963, 0.3638888888888889, 0.34074074074074073]","[1, 1, 1]","[0, 0, 0]","[0, 0, 0]","[18.76249979999966, 24.94539020000002, 41.36156119999987]",0.011504819993206183,41.372861919993284,['A1'],['B2'],['C3'],['yellow'],['salmon'],['blue'],1285.2734142999998,None,8.0,3.0136093000000983,1285.2734142999998,None,1300.2585202,None,4.0,9.031791100000191,1293.9064447,None,8.0,3.565209800000048,1288.4733381,None,6.0,5.547890400000142,<function functionImportanceA at 0x00000280802B1488>,<function functionImportanceC at 0x0000028080C17268>,<function functionImportanceB at 0x0000028080C17378>,,,2.0,4.431591000000026,8.0,4.664185499999803,-0.0,5.547890400000142,<function functiondiffA at 0x00000280802B18C8>,<function functiondiffC at 0x0000028080C17510>,<function functiondiffB at 0x00000280802B12F0>,,,,,1243.4453692000002,1318.3898954000001,None,1310.9729542,None,1306.5563536,None,10,001,2022_Jul_12_1045,2leo,2021.2.3,60.00790904232768,
3,29,Plan a day in the mountains ,Stimuli/29A1.jpg,Stimuli/29A2.jpg,Stimuli/29A3.jpg,Stimuli/29B1.jpg,Stimuli/29B2.jpg,Stimuli/29B3.jpg,Stimuli/29C1.jpg,Stimuli/29C2.jpg,Stimuli/29C3.jpg,,,,,0,11,11,29,,,,,,,,1321.7557355,None,1322.7559253999998,None,1328.75589,None,"[0.304, -0.26]","[0.07, 0.393]","[-0.378, -0.136]","[0.066, -0.395]","[0.306, 0.255]","[-0.377, 0.138]","[-0.203, -0.347]","[0.399, -0.003]","[-0.2, 0.346]",,6.644665259998874,18.41118405999896,28.561661359999107,"[-0.34814814814814815, 0.30462962962962964, -0.14537037037037037]","[-0.1111111111111111, 0.19537037037037036, 0.29814814814814816]","[1, 1, 1]","[0, 0, 0]","[0, 0, 0]","[6.628935799999908, 18.395260899999812, 28.545331100000112]",0.015115459998924052,28.560162259999288,['A3'],['B2'],['C3'],['salmon'],['yellow'],['blue'],1359.0045276,None,7.0,3.5297184999999445,1359.0045276,None,1367.4714476999998,None,7.0,3.548488399999769,1370.9880483000002,None,4.0,6.331532100000004,1362.6548609000001,None,9.0,4.798171999999795,<function functionImportanceA at 0x0000028080C17A60>,<function functionImportanceB at 0x0000028080C17AE8>,<function functionImportanceC at 0x0000028080C17840>,,,-0.0,3.7147279999999228,3.0,3.914447099999961,4.0,4.798171999999795,<function functiondiffA at 0x00000280821DFEA0>,<function functiondiffB at 0x00000280821DF1E0>,<function functiondiffC at 0x00000280802B10D0>,,,,,1329.9741651999998,1381.0376175000001,None,1384.9708999999998,None,1377.3210909,None,10,001,2022_Jul_12_1045,2leo,2021.2.3,60.00790904232768,
3,27,Plan what festival to visit with your friends,Stimuli/27A1.jpg,Stimuli/27A2.jpg,Stimuli/27A3.jpg,Stimuli/27B1.jpg,Stimuli/27B2.jpg,Stimuli/27B3.jpg,Stimuli/27C1.jpg,Stimuli/27C2.jpg,Stimuli/27C3.jpg,,,,,0,12,12,27,,,,,,,,1391.5038679,None,1392.5041852,None,1398.5040705000001,None,"[-0.377, 0.138]","[0.306, 0.255]","[0.066, -0.395]","[-0.378, -0.136]","[0.07, 0.393]","[0.304, -0.26]","[-0.2, 0.346]","[0.399, -0.003]","[-0.203, -0.347]",,31.53355625999984,37.016997159999846,32.68397215999994,"[-0.3685185185185185, -0.225, -0.33240740740740743]","[0.11666666666666667, 0.31851851851851853, -0.1527777777777778]","[1, 1, 1]","[0, 0, 0]","[0, 0, 0]","[31.523578499999985, 32.67348149999998, 37.006685899999866]",0.009572659999776079,37.01619096000013,['A1'],['B1'],['C1'],['blue'],['yellow'],['salmon'],1437.1359652,None,8.0,2.1635839999999007,1437.1359652,None,1439.3695317000002,None,7.0,4.397646599999916,1443.7859162,None,2.0,4.615332999999737,1448.4033309000001,None,8.0,4.5148419999995895,<function functionImportanceB at 0x0000028080C17E18>,<function functionImportanceC at 0x0000028080C17C80>,<function functionImportanceA at 0x0000028080C17D08>,,,4.0,3.5149003000001358,3.0,2.6645704000002297,7.0,4.5148419999995895,<function functiondiffC at 0x0000028080C17EA0>,<function functiondiffB at 0x00000280821DF7B8>,<function functiondiffA at 0x00000280821DF620>,,,,,1399.6443724,1457.2689274999998,None,1452.9190853999999,None,1459.952237,None,10,001,2022_Jul_12_1045,2leo,2021.2.3,60.00790904232768,
3,18,Plan your Saturday night ,Stimuli/18A1.jpg,Stimuli/18A2.jpg,Stimuli/18A3.jpg,Stimuli/18B1.jpg,Stimuli/18B2.jpg,Stimuli/18B3.jpg,Stimuli/18C1.jpg,Stimuli/18C2.jpg,Stimuli/18C3.jpg,,,,,0,13,13,18,,,,,,,,1462.9853945999998,None,1463.9855075,None,1469.9852734,None,"[-0.2, 0.346]","[-0.203, -0.347]","[0.399, -0.003]","[-0.377, 0.138]","[0.066, -0.395]","[0.306, 0.255]","[-0.378, -0.136]","[0.304, -0.26]","[0.07, 0.393]",,31.168528620000416,32.435320520000005,35.969148320000386,"[0.34814814814814815, 0.08888888888888889, 0.11481481481481481]","[0.021296296296296296, -0.4009259259259259, 0.35555555555555557]","[1, 1, 1]","[0, 0, 0]","[0, 0, 0]","[31.165994700000283, 32.43262619999996, 35.966137100000196]",0.0019342200002938625,35.96779622000031,['A3'],['B2'],['C3'],['salmon'],['blue'],['yellow'],1507.5674979,None,4.0,3.6800130999999965,1507.5674979,None,1517.1840713000001,None,8.0,3.2982609999999113,1514.5340987,None,3.0,2.6655243000000155,1511.3183029000002,None,7.0,3.1980406000002404,<function functionImportanceA at 0x0000028080C17D90>,<function functionImportanceC at 0x00000280802B1378>,<function functionImportanceB at 0x0000028080C17B70>,,,6.0,3.064794300000358,9.0,4.66422139999986,2.0,3.1980406000002404,<function functiondiffC at 0x0000028080C179D8>,<function functiondiffA at 0x0000028080C17BF8>,<function functiondiffB at 0x0000028080C176A8>,,,,,1471.1168610999998,1527.7670889,None,1520.5008671,None,1524.7004732999999,None,10,001,2022_Jul_12_1045,2leo,2021.2.3,60.00790904232768,
3,26,Plan how to wash one round of your laundry ,Stimuli/26A1.jpg,Stimuli/26A2.jpg,Stimuli/26A3.jpg,Stimuli/26B1.jpg,Stimuli/26B2.jpg,Stimuli/26B3.jpg,Stimuli/26C1.jpg,Stimuli/26C2.jpg,Stimuli/26C3.jpg,,,,,0,14,14,26,,,,,,,,1531.9668502,None,1532.9669897999997,None,1538.9671294,None,"[-0.203, -0.347]","[-0.2, 0.346]","[0.399, -0.003]","[0.066, -0.395]","[-0.377, 0.138]","[0.306, 0.255]","[0.304, -0.26]","[-0.378, -0.136]","[0.07, 0.393]",,16.300697559999207,34.616994459999205,24.700744759998997,"[-0.21666666666666667, 0.3296296296296296, 0.2935185185185185]","[0.3972222222222222, -0.2361111111111111, 0.2351851851851852]","[1, 1, 1]","[0, 0, 0]","[0, 0, 0]","[16.290720400000282, 24.690342500000042, 34.60671010000033]",0.009403059999385732,34.61592535999898,['A2'],['B3'],['C1'],['blue'],['salmon'],['yellow'],1575.1989737999997,None,3.0,3.5471275999998397,1575.1989737999997,None,1578.8159477999998,None,4.0,7.86413709999988,1586.6822293999999,None,3.0,4.2818027000002985,1590.9821324,None,6.0,3.6315945000001193,<function functionImportanceB at 0x0000028080C17158>,<function functionImportanceC at 0x0000028081AA6048>,<function functionImportanceA at 0x0000028080C17730>,,,2.0,2.9147484000000077,4.0,5.547714900000301,5.0,3.6315945000001193,<function functiondiffB at 0x0000028080C172F0>,<function functiondiffA at 0x0000028080C171E0>,<function functiondiffC at 0x0000028081AA6378>,,,,,1540.1074906,1594.6153433,None,1603.1151535999998,None,1600.182014,None,10,001,2022_Jul_12_1045,2leo,2021.2.3,60.00790904232768,
3,7,Plan your Sunday breakfast ,Stimuli/7A1.jpg,Stimuli/7A2.jpg,Stimuli/7A3.jpg,Stimuli/7B1.jpg,Stimuli/7B2.jpg,Stimuli/7B3.jpg,Stimuli/7C1.jpg,Stimuli/7C2.jpg,Stimuli/7C3.jpg,,,,,0,15,15,7,,,,,,,,1641.3307054000002,None,1642.3308004,None,1648.3307055,None,"[-0.203, -0.347]","[-0.2, 0.346]","[0.399, -0.003]","[0.304, -0.26]","[-0.378, -0.136]","[0.07, 0.393]","[0.066, -0.395]","[-0.377, 0.138]","[0.306, 0.255]",,14.005483099988396,27.538850399988405,40.922321099988494,"[-0.1388888888888889, -0.32407407407407407, 0.35185185185185186]","[0.33425925925925926, -0.10925925925925926, 0.24166666666666667]","[1, 1, 1]","[0, 0, 0]","[0, 0, 0]","[13.991872999999941, 27.524934999999914, 40.90809959999979]",0.013109099988469097,40.920946899988394,['A2'],['B2'],['C3'],['yellow'],['blue'],['salmon'],1695.7626326,None,2.0,3.813646100000369,1695.7626326,None,1707.8623893,None,4.0,9.198206799999753,1700.8453912999998,None,1.0,6.331364099999973,1716.9957048,None,6.0,7.215383300000212,<function functionImportanceC at 0x0000028081AA60D0>,<function functionImportanceB at 0x0000028081AA6EA0>,<function functionImportanceA at 0x0000028080C178C8>,,,2.0,4.164257399999769,4.0,5.214474800000062,9.0,7.215383300000212,<function functiondiffA at 0x0000028080C17488>,<function functiondiffC at 0x0000028080C17950>,<function functiondiffB at 0x0000028080C17400>,,,,,1654.3894387,1730.2120062,None,1726.9286511,None,1722.9120641999998,None,10,001,2022_Jul_12_1045,2leo,2021.2.3,60.00790904232768,
3,41,Plan how you want to have dinner tonight ,Stimuli/41A1.jpg,Stimuli/41A2.jpg,Stimuli/41A3.jpg,Stimuli/41B1.jpg,Stimuli/41B2.jpg,Stimuli/41B3.jpg,Stimuli/41C1.jpg,Stimuli/41C2.jpg,Stimuli/41C3.jpg,,,,,0,16,16,41,,,,,,,,1734.278131,None,1735.2784209000001,None,1741.278283,None,"[0.066, -0.395]","[0.306, 0.255]","[-0.377, 0.138]","[0.304, -0.26]","[0.07, 0.393]","[-0.378, -0.136]","[-0.203, -0.347]","[0.399, -0.003]","[-0.2, 0.346]",,19.15105843999936,21.8845375399992,28.267990839999584,"[0.2740740740740741, 0.275, -0.19444444444444445]","[0.20462962962962963, -0.30462962962962964, 0.3731481481481482]","[1, 1, 1]","[0, 0, 0]","[0, 0, 0]","[19.139350899999954, 21.872660500000165, 28.255660499999976]",0.011182939999343944,28.26670083999943,['A2'],['B1'],['C3'],['blue'],['salmon'],['yellow'],1771.4438141,None,7.0,4.113199999999779,1771.4438141,None,1782.5102447,None,7.0,3.3484598999998525,1786.0101768,None,4.0,5.215223600000172,1775.6938802,None,6.0,6.797575500000221,<function functionImportanceA at 0x0000028081AA6950>,<function functionImportanceB at 0x0000028081AA6158>,<function functionImportanceC at 0x0000028081AA68C8>,,,3.0,3.747761999999966,3.0,6.380572199999733,3.0,6.797575500000221,<function functiondiffC at 0x0000028081AA6730>,<function functiondiffB at 0x0000028081AA6E18>,<function functiondiffA at 0x0000028081AA6D08>,,,,,1742.7039098999999,1794.7767024,None,1791.0269776,None,1801.1931841,None,10,001,2022_Jul_12_1045,2leo,2021.2.3,60.00790904232768,
3,20,Plan a tea party with your friends,Stimuli/20A1.jpg,Stimuli/20A2.jpg,Stimuli/20A3.jpg,Stimuli/20B1.jpg,Stimuli/20B2.jpg,Stimuli/20B3.jpg,Stimuli/20C1.jpg,Stimuli/20C2.jpg,Stimuli/20C3.jpg,,,,,0,17,17,20,,,,,,,,1804.4597831,None,1805.4600371000001,None,1811.4598009000001,None,"[-0.203, -0.347]","[0.399, -0.003]","[-0.2, 0.346]","[0.304, -0.26]","[0.07, 0.393]","[-0.378, -0.136]","[0.066, -0.395]","[0.306, 0.255]","[-0.377, 0.138]",,20.687146639993898,30.570686039994143,41.204038539994144,"[-0.16018518518518518, 0.2740740740740741, 0.11203703703703703]","[-0.3425925925925926, -0.24351851851851852, -0.3851851851851852]","[1, 1, 1]","[0, 0, 0]","[0, 0, 0]","[20.67052169999988, 30.553828600000088, 41.1869158999998]",0.016176339993762667,41.20288883999365,['A1'],['B1'],['C1'],['yellow'],['salmon'],['blue'],1856.7416414999998,None,7.0,2.613213900000119,1856.7416414999998,None,1866.0429924,None,7.0,9.014912399999957,1859.4250616,None,3.0,4.16451859999961,1872.6578785000002,None,2.0,3.848594199999752,<function functionImportanceC at 0x000002808213B620>,<function functionImportanceB at 0x000002808213B6A8>,<function functionImportanceA at 0x0000028080C17598>,,,1.0,2.9978006999999707,3.0,3.9308913000004395,6.0,3.848594199999752,<function functiondiffA at 0x00000280802B1950>,<function functiondiffB at 0x0000028081AA69D8>,<function functiondiffC at 0x0000028080C17F28>,,,,,1815.0862471,1880.0576506999996,None,1883.4411884,None,1876.4745798000004,None,10,001,2022_Jul_12_1045,2leo,2021.2.3,60.00790904232768,
3,2,Plan which ingredients you want to use for cooking dinner today,Stimuli/2A1.jpg,Stimuli/2A2.jpg,Stimuli/2A3.jpg,Stimuli/2B1.jpg,Stimuli/2B2.jpg,Stimuli/2B3.jpg,Stimuli/2C1.jpg,Stimuli/2C2.jpg,Stimuli/2C3.jpg,,,,,0,18,18,2,,,,,,,,1886.0074869999999,None,1887.0075811999995,None,1893.0075285000003,None,"[0.306, 0.255]","[-0.377, 0.138]","[0.066, -0.395]","[0.07, 0.393]","[-0.378, -0.136]","[0.304, -0.26]","[0.399, -0.003]","[-0.2, 0.346]","[-0.203, -0.347]",,53.629762799988384,55.246477699988645,33.813829199988504,"[-0.19722222222222222, 0.1037037037037037, 0.26481481481481484]","[-0.38333333333333336, -0.3861111111111111, -0.3101851851851852]","[1, 1, 1]","[0, 0, 0]","[0, 0, 0]","[33.81160689999979, 53.62807890000022, 55.244519599999876]",0.001056799987964041,55.24552199998834,['A3'],['B3'],['C3'],['salmon'],['blue'],['yellow'],1954.8721744000004,None,3.0,4.530340799999976,1954.8721744000004,None,1972.9551457999996,None,1.0,5.648765799999637,1960.0889686,None,4.0,6.414434000000256,1967.0055623999997,None,3.0,3.649408599999333,<function functionImportanceC at 0x000002808213B9D8>,<function functionImportanceA at 0x0000028080C177B8>,<function functionImportanceB at 0x0000028081AA6F28>,,,7.0,2.798199800000475,6.0,3.080883399999948,3.0,3.649408599999333,<function functiondiffC at 0x0000028081AA6BF8>,<function functiondiffA at 0x0000028081AA6400>,<function functiondiffB at 0x0000028081AA6510>,,,,,1899.1601898,1982.4884825999998,None,1975.3884146,None,1979.1719285,None,10,001,2022_Jul_12_1045,2leo,2021.2.3,60.00790904232768,
3,21,Plan your sandwich for lunch,Stimuli/21A1.jpg,Stimuli/21A2.jpg,Stimuli/21A3.jpg,Stimuli/21B1.jpg,Stimuli/21B2.jpg,Stimuli/21B3.jpg,Stimuli/21C1.jpg,Stimuli/21C2.jpg,Stimuli/21C3.jpg,,,,,0,19,19,21,,,,,,,,1984.2715802000002,None,1985.2719226,None,1991.2716549999996,None,"[-0.2, 0.346]","[0.399, -0.003]","[-0.203, -0.347]","[-0.377, 0.138]","[0.306, 0.255]","[0.066, -0.395]","[-0.378, -0.136]","[0.07, 0.393]","[0.304, -0.26]",,24.094836119999854,31.3452203199995,28.46204802000011,"[-0.22314814814814815, 0.07962962962962963, 0.06574074074074074]","[0.40370370370370373, 0.3527777777777778, -0.37407407407407406]","[1, 1, 1]","[0, 0, 0]","[0, 0, 0]","[24.078919399999904, 28.4455154999996, 31.328900299999987]",0.015470419999473961,31.344047720000162,['A1'],['B3'],['C2'],['salmon'],['blue'],['yellow'],2024.2872547999996,None,6.0,3.9798252000000502,2024.2872547999996,None,2034.5204915000004,None,1.0,2.781350199999906,2028.3539235999997,None,2.0,6.0812032000003455,2037.2703259999998,None,4.0,2.5988280000001396,<function functionImportanceC at 0x000002808213B7B8>,<function functionImportanceB at 0x000002808213B400>,<function functionImportanceA at 0x000002808213B2F0>,,,1.0,2.3644443000002866,3.0,3.680802799999583,2.0,2.5988280000001396,<function functiondiffB at 0x0000028081AA6488>,<function functiondiffC at 0x0000028081AA6620>,<function functiondiffA at 0x0000028080C17620>,,,,,1992.4742631999998,2039.8203617999998,None,2043.5033384999997,None,2046.5532261999997,None,10,001,2022_Jul_12_1045,2leo,2021.2.3,60.00790904232768,
3,43,Plan your dream house,Stimuli/43A1.jpg,Stimuli/43A2.jpg,Stimuli/43A3.jpg,Stimuli/43B1.jpg,Stimuli/43B2.jpg,Stimuli/43B3.jpg,Stimuli/43C1.jpg,Stimuli/43C2.jpg,Stimuli/43C3.jpg,,,,,0,20,20,43,,,,,,,,2048.4365332999996,None,2049.4366196,None,2055.4366909,None,"[-0.377, 0.138]","[0.066, -0.395]","[0.306, 0.255]","[-0.2, 0.346]","[-0.203, -0.347]","[0.399, -0.003]","[-0.378, -0.136]","[0.304, -0.26]","[0.07, 0.393]",,23.54921788000047,36.01561108000078,55.96513578000122,"[-0.31296296296296294, -0.23333333333333334, -0.3814814814814815]","[0.08611111111111111, -0.33425925925925926, -0.1935185185185185]","[1, 1, 1]","[0, 0, 0]","[0, 0, 0]","[23.539868200000456, 36.0058626, 55.9551218000006]",0.008928380000725156,55.9639682800007,['A1'],['B2'],['C1'],['salmon'],['yellow'],['blue'],2113.0681483,None,8.0,1.7467311000000336,2113.0681483,None,2114.8683653999997,None,4.0,5.031291500000407,2122.3513525,None,8.0,3.0654131999999663,2119.9514577,None,6.0,2.415109599999596,<function functionImportanceB at 0x0000028081AA6268>,<function functionImportanceA at 0x0000028081AA61E0>,<function functionImportanceC at 0x0000028081AA67B8>,,,3.0,2.8477819999998246,3.0,3.1979348999993817,8.0,2.415109599999596,<function functiondiffA at 0x000002808213B488>,<function functiondiffC at 0x000002808213BF28>,<function functiondiffB at 0x000002808213B378>,,,,,2056.627157,2132.5679243000004,None,2128.2846287,None,2125.4011967999995,None,10,001,2022_Jul_12_1045,2leo,2021.2.3,60.00790904232768,
3,9,Plan a picnic with friends,Stimuli/9A1.jpg,Stimuli/9A2.jpg,Stimuli/9A3.jpg,Stimuli/9B1.jpg,Stimuli/9B2.jpg,Stimuli/9B3.jpg,Stimuli/9C1.jpg,Stimuli/9C2.jpg,Stimuli/9C3.jpg,,,,,0,21,21,9,,,,,,,,2135.2842215,None,2136.2844021,None,2142.2843620000003,None,"[0.07, 0.393]","[0.304, -0.26]","[-0.378, -0.136]","[0.306, 0.255]","[0.066, -0.395]","[-0.377, 0.138]","[0.399, -0.003]","[-0.203, -0.347]","[-0.2, 0.346]",,22.330079419990398,49.49615781999091,29.01387891999093,"[0.07777777777777778, -0.16666666666666666, 0.3138888888888889]","[0.4009259259259259, -0.4083333333333333, 0.2462962962962963]","[1, 1, 1]","[0, 0, 0]","[0, 0, 0]","[22.32422459999998, 29.00742749999972, 49.48995699999978]",0.005442619990390085,49.49538581999059,['A1'],['B1'],['C2'],['salmon'],['yellow'],['blue'],2197.6825608,None,3.0,2.8805766999994376,2197.6825608,None,2215.0656277,None,2.0,3.7152366000000256,2202.0823417,None,3.0,7.581171200000426,2209.73254,None,7.0,5.548316300000806,<function functionImportanceC at 0x000002808213B840>,<function functionImportanceA at 0x000002808213B0D0>,<function functionImportanceB at 0x000002808213BBF8>,,,3.0,4.181255700000293,6.0,2.914748999999574,6.0,5.548316300000806,<function functiondiffC at 0x000002808213B510>,<function functiondiffA at 0x0000028080C17048>,<function functiondiffB at 0x000002808213BD08>,,,,,2147.7280487,2227.0154138,None,2217.9822028999997,None,2222.8987602999996,None,10,001,2022_Jul_12_1045,2leo,2021.2.3,60.00790904232768,
3,31,Plan your order at a restaurant    ,Stimuli/31A1.jpg,Stimuli/31A2.jpg,Stimuli/31A3.jpg,Stimuli/31B1.jpg,Stimuli/31B2.jpg,Stimuli/31B3.jpg,Stimuli/31C1.jpg,Stimuli/31C2.jpg,Stimuli/31C3.jpg,,,,,0,22,22,31,,,,,,,,2229.0649234,None,2230.0652927,None,2236.0651207,None,"[0.07, 0.393]","[0.304, -0.26]","[-0.378, -0.136]","[0.306, 0.255]","[0.066, -0.395]","[-0.377, 0.138]","[0.399, -0.003]","[-0.203, -0.347]","[-0.2, 0.346]",,29.292383399996652,44.04191399999672,46.10903629999666,"[-0.3296296296296296, 0.053703703703703705, -0.13055555555555556]","[-0.12222222222222222, -0.35833333333333334, -0.3314814814814815]","[1, 1, 1]","[0, 0, 0]","[0, 0, 0]","[29.286212500000147, 44.03558460000022, 46.10231870000007]",0.005566899996665597,46.107818899996346,['A3'],['B2'],['C2'],['yellow'],['blue'],['salmon'],2285.3303730999996,None,6.0,2.8635659999999916,2285.3303730999996,None,2296.6300147,None,8.0,2.2485458999999537,2288.3470274,None,6.0,3.447874899999988,2293.1803207000003,None,4.0,4.831767900000159,<function functionImportanceC at 0x000002808213BEA0>,<function functionImportanceA at 0x0000028081AA6D90>,<function functionImportanceB at 0x000002808213B598>,,,4.0,5.414455000000089,6.0,5.347670100000869,3.0,4.831767900000159,<function functiondiffC at 0x000002808213BA60>,<function functiondiffA at 0x000002808213B158>,<function functiondiffB at 0x000002808213BE18>,,,,,2238.7611796,2309.4798490000003,None,2298.8134072000003,None,2304.3799530999995,None,10,001,2022_Jul_12_1045,2leo,2021.2.3,60.00790904232768,
3,15,Plan your own Pasta for lunch,Stimuli/15A1.jpg,Stimuli/15A2.jpg,Stimuli/15A3.jpg,Stimuli/15B1.jpg,Stimuli/15B2.jpg,Stimuli/15B3.jpg,Stimuli/15C1.jpg,Stimuli/15C2.jpg,Stimuli/15C3.jpg,,,,,0,23,23,15,,,,,,,,2314.3459171000004,None,2315.3463309,None,2321.3463032,None,"[0.306, 0.255]","[0.066, -0.395]","[-0.377, 0.138]","[0.07, 0.393]","[0.304, -0.26]","[-0.378, -0.136]","[0.399, -0.003]","[-0.203, -0.347]","[-0.2, 0.346]",,37.05484501999763,22.40540611999768,32.272527719997925,"[0.34074074074074073, -0.1537037037037037, 0.31296296296296294]","[-0.19537037037037036, 0.41203703703703703, 0.21481481481481482]","[1, 1, 1]","[0, 0, 0]","[0, 0, 0]","[22.39669429999958, 32.26347629999964, 37.04648980000002]",0.007933319997391663,37.05420751999736,['A1'],['B2'],['C3'],['yellow'],['salmon'],['blue'],2360.8449221,None,6.0,2.4302346000004036,2360.8449221,None,2363.3284856,None,4.0,4.197639600000002,2371.6448979999996,None,4.0,4.064945899999657,2367.6617699,None,1.0,3.364948600000389,<function functionImportanceB at 0x0000028082C94158>,<function functionImportanceA at 0x000002808213BAE8>,<function functionImportanceC at 0x0000028082C94950>,,,4.0,3.447936800000207,2.0,3.997600099999545,3.0,3.364948600000389,<function functiondiffB at 0x000002808213BB70>,<function functiondiffA at 0x000002808213B1E0>,<function functiondiffC at 0x0000028082C948C8>,,,,,2323.3294076,2374.9947246,None,2382.6278065999995,None,2379.0110787000003,None,10,001,2022_Jul_12_1045,2leo,2021.2.3,60.00790904232768,
3,24,Plan your Monday morning on a workday ,Stimuli/24A1.jpg,Stimuli/24A2.jpg,Stimuli/24A3.jpg,Stimuli/24B1.jpg,Stimuli/24B2.jpg,Stimuli/24B3.jpg,Stimuli/24C1.jpg,Stimuli/24C2.jpg,Stimuli/24C3.jpg,,,,,0,24,24,24,,,,,,,,2384.7107604000003,None,2385.7111456000002,None,2391.711126,None,"[0.306, 0.255]","[-0.377, 0.138]","[0.066, -0.395]","[0.399, -0.003]","[-0.2, 0.346]","[-0.203, -0.347]","[0.07, 0.393]","[-0.378, -0.136]","[0.304, -0.26]",,28.880976759999612,18.614836359999572,36.898102659999495,"[-0.14814814814814814, -0.387037037037037, -0.4324074074074074]","[0.3527777777777778, 0.15185185185185185, -0.15185185185185185]","[1, 1, 1]","[0, 0, 0]","[0, 0, 0]","[18.605802199999744, 28.872214400000303, 36.88886670000011]",0.008223259999795118,36.89686345999962,['A2'],['B2'],['C2'],['yellow'],['salmon'],['blue'],2430.2263685,None,8.0,2.096836199999416,2430.2263685,None,2432.3933054999998,None,6.0,4.930989499999669,2437.3597698000003,None,7.0,2.96531159999995,2440.3263385,None,4.0,4.198602500000561,<function functionImportanceB at 0x0000028082C94488>,<function functionImportanceC at 0x0000028082C942F0>,<function functionImportanceA at 0x0000028082C94400>,,,4.0,3.0312972000001537,2.0,1.898027600000205,6.0,4.198602500000561,<function functiondiffA at 0x000002808213BD90>,<function functiondiffC at 0x000002808213B730>,<function functiondiffB at 0x000002808213B048>,,,,,2392.8521957000003,2451.1261799000004,None,2447.5595354999996,None,2444.5096525999998,None,10,001,2022_Jul_12_1045,2leo,2021.2.3,60.00790904232768,
3,11,Plan a hike in nature on a free day,Stimuli/11A1.jpg,Stimuli/11A2.jpg,Stimuli/11A3.jpg,Stimuli/11B1.jpg,Stimuli/11B2.jpg,Stimuli/11B3.jpg,Stimuli/11C1.jpg,Stimuli/11C2.jpg,Stimuli/11C3.jpg,,,,,0,25,25,11,,,,,,,,2452.5422691000003,None,2453.5424978,None,2459.5426909,None,"[0.306, 0.255]","[-0.377, 0.138]","[0.066, -0.395]","[0.07, 0.393]","[-0.378, -0.136]","[0.304, -0.26]","[0.399, -0.003]","[-0.2, 0.346]","[-0.203, -0.347]",,29.8501669999996,31.00058059999992,18.2174457000001,"[-0.1527777777777778, 0.06574074074074074, 0.35462962962962963]","[0.28703703703703703, -0.35462962962962963, -0.275]","[1, 1, 1]","[0, 0, 0]","[0, 0, 0]","[18.215174099999786, 29.848317599999973, 30.998483000000306]",0.0012340000002950546,30.999501999999666,['A3'],['B3'],['C2'],['blue'],['yellow'],['salmon'],2492.1914992,None,10.0,4.530405200000132,2492.1914992,None,2503.3246863000004,None,8.0,3.398654599999645,2496.7916112000003,None,3.0,3.1315544999997655,2499.9414225,None,8.0,3.36509389999992,<function functionImportanceC at 0x0000028082C94BF8>,<function functionImportanceA at 0x0000028082C94D90>,<function functionImportanceB at 0x0000028082C94840>,,,2.0,5.131110799999988,3.0,3.647757300000194,1.0,3.36509389999992,<function functiondiffB at 0x0000028082C94F28>,<function functiondiffC at 0x0000028082C946A8>,<function functiondiffA at 0x000002808213BC80>,,,,,2460.7079940000003,2506.7079751,None,2510.3744785999997,None,2513.6410422999998,None,10,001,2022_Jul_12_1045,2leo,2021.2.3,60.00790904232768,
3,25,Plan how you want to read a book in your free time ,Stimuli/25A1.jpg,Stimuli/25A2.jpg,Stimuli/25A3.jpg,Stimuli/25B1.jpg,Stimuli/25B2.jpg,Stimuli/25B3.jpg,Stimuli/25C1.jpg,Stimuli/25C2.jpg,Stimuli/25C3.jpg,,,,,0,26,26,25,,,,,,,,2518.2907428999997,None,2519.2910266,None,2525.290946,None,"[-0.377, 0.138]","[0.066, -0.395]","[0.306, 0.255]","[-0.2, 0.346]","[-0.203, -0.347]","[0.399, -0.003]","[-0.378, -0.136]","[0.304, -0.26]","[0.07, 0.393]",,26.58860185999947,8.472657959999196,17.43930925999939,"[-0.1675925925925926, 0.08796296296296297, -0.38055555555555554]","[-0.32407407407407407, 0.44907407407407407, 0.09444444444444444]","[1, 1, 1]","[0, 0, 0]","[0, 0, 0]","[8.466566400000374, 17.432880600000317, 26.582873300000756]",0.005319059999237652,26.587955459999648,['A1'],['B2'],['C3'],['yellow'],['blue'],['salmon'],2553.8399157000003,None,7.0,3.3468917999998666,2553.8399157000003,None,2560.2730973,None,6.0,4.83168569999998,2557.5566343,None,7.0,2.9649040999993304,2565.0895118999997,None,7.0,2.431772799999635,<function functionImportanceC at 0x000002808213B8C8>,<function functionImportanceB at 0x0000028082C94E18>,<function functionImportanceA at 0x0000028082C94598>,,,6.0,5.531275399999686,-0.0,2.2816414999997505,2.0,2.431772799999635,<function functiondiffC at 0x0000028082C94B70>,<function functiondiffB at 0x0000028082C94620>,<function functiondiffA at 0x0000028081AA6840>,,,,,2526.7908397,2578.7062235000003,None,2567.5897391999997,None,2580.9893079000003,None,10,001,2022_Jul_12_1045,2leo,2021.2.3,60.00790904232768,
3,34,Plan what car you want to buy,Stimuli/34A1.jpg,Stimuli/34A2.jpg,Stimuli/34A3.jpg,Stimuli/34B1.jpg,Stimuli/34B2.jpg,Stimuli/34B3.jpg,Stimuli/34C1.jpg,Stimuli/34C2.jpg,Stimuli/34C3.jpg,,,,,0,27,27,34,,,,,,,,2586.0389482,None,2587.0391664,None,2593.0391583,None,"[-0.377, 0.138]","[0.066, -0.395]","[0.306, 0.255]","[-0.2, 0.346]","[-0.203, -0.347]","[0.399, -0.003]","[-0.378, -0.136]","[0.304, -0.26]","[0.07, 0.393]",,26.395793739994588,38.429442739994556,32.763455839994094,"[-0.3194444444444444, 0.05462962962962963, -0.1527777777777778]","[0.11851851851851852, 0.3638888888888889, 0.275]","[1, 1, 1]","[0, 0, 0]","[0, 0, 0]","[26.394235599999774, 32.761254900000495, 38.4276332999998]",0.0011210399943593075,38.42861033999452,['A1'],['B1'],['C3'],['salmon'],['yellow'],['blue'],2635.0711742000003,None,6.0,2.7470462000001135,2635.0711742000003,None,2643.5876969,None,6.0,4.081734100000176,2646.7209547,None,3.0,3.0986188999995647,2638.9045626999996,None,8.0,4.71406240000033,<function functionImportanceA at 0x0000028082C947B8>,<function functionImportanceB at 0x0000028082C94C80>,<function functionImportanceC at 0x0000028083256048>,,,2.0,3.1149482999999236,6.0,4.364735400000427,3.0,4.71406240000033,<function functiondiffC at 0x00000280832561E0>,<function functiondiffB at 0x0000028082C94A60>,<function functiondiffA at 0x0000028082C940D0>,,,,,2596.1750599999996,2654.8873643999996,None,2649.8041677,None,2659.3536764,None,10,001,2022_Jul_12_1045,2leo,2021.2.3,60.00790904232768,
3,35,Plan how you want to do your grocery shopping ,Stimuli/35A1.jpg,Stimuli/35A2.jpg,Stimuli/35A3.jpg,Stimuli/35B1.jpg,Stimuli/35B2.jpg,Stimuli/35B3.jpg,Stimuli/35C1.jpg,Stimuli/35C2.jpg,Stimuli/35C3.jpg,,,,,0,28,28,35,,,,,,,,2661.6533965,None,2662.6537569,None,2668.6536875,None,"[0.07, 0.393]","[-0.378, -0.136]","[0.304, -0.26]","[0.399, -0.003]","[-0.2, 0.346]","[-0.203, -0.347]","[0.306, 0.255]","[-0.377, 0.138]","[0.066, -0.395]",,11.962820779999674,29.229143879999356,18.379736779999803,"[0.2962962962962963, 0.10740740740740741, -0.12407407407407407]","[-0.28703703703703703, -0.35, 0.275]","[1, 1, 1]","[0, 0, 0]","[0, 0, 0]","[11.945994900000187, 18.362334700000247, 29.212149699999827]",0.016232779998972546,29.228123079999023,['A3'],['B2'],['C3'],['salmon'],['yellow'],['blue'],2699.6193461000003,None,7.0,4.447095900000022,2699.6193461000003,None,2709.4524253,None,7.0,3.1818238000005294,2704.1361417,None,6.0,5.214083699999719,2712.6190643,None,4.0,3.6987669000000096,<function functionImportanceC at 0x00000280832567B8>,<function functionImportanceB at 0x00000280832566A8>,<function functionImportanceA at 0x0000028083256C80>,,,2.0,2.831021099999816,6.0,2.2810663999998724,3.0,3.6987669000000096,<function functiondiffA at 0x0000028082C94510>,<function functiondiffC at 0x0000028083256840>,<function functiondiffB at 0x0000028082C94268>,,,,,2669.9232746999996,2723.2022632,None,2719.1023297,None,2716.2524061000004,None,10,001,2022_Jul_12_1045,2leo,2021.2.3,60.00790904232768,
3,36,Plan your shopping for new clothing,Stimuli/36A1.jpg,Stimuli/36A2.jpg,Stimuli/36A3.jpg,Stimuli/36B1.jpg,Stimuli/36B2.jpg,Stimuli/36B3.jpg,Stimuli/36C1.jpg,Stimuli/36C2.jpg,Stimuli/36C3.jpg,,,,,0,29,29,36,,,,,,,,2724.9850555000003,None,2725.9854370000003,None,2731.9853552000004,None,"[-0.377, 0.138]","[0.066, -0.395]","[0.306, 0.255]","[-0.2, 0.346]","[-0.203, -0.347]","[0.399, -0.003]","[-0.378, -0.136]","[0.304, -0.26]","[0.07, 0.393]",,40.09519985999941,35.92901325999992,25.562835859999723,"[0.28888888888888886, -0.17222222222222222, -0.3101851851851852]","[-0.29259259259259257, 0.3925925925925926, 0.1638888888888889]","[1, 1, 1]","[0, 0, 0]","[0, 0, 0]","[25.554645100000016, 35.921151100000316, 40.08759670000018]",0.007171659999585245,40.094697559999986,['A1'],['B1'],['C2'],['salmon'],['blue'],['yellow'],2773.7008124000004,None,6.0,2.763397600000644,2773.7008124000004,None,2779.7008102,None,4.0,3.631610599999476,2776.5341311,None,7.0,3.164360200000374,2783.36715,None,6.0,6.2481915999997,<function functionImportanceC at 0x0000028083256B70>,<function functionImportanceB at 0x0000028083256AE8>,<function functionImportanceA at 0x0000028083256488>,,,4.0,2.8312775000003967,3.0,3.3639767999993637,2.0,6.2481915999997,<function functiondiffB at 0x0000028083256158>,<function functiondiffA at 0x0000028083256730>,<function functiondiffC at 0x000002808213B950>,,,,,2733.1278009,2789.6004024000003,None,2795.8170091,None,2792.9837889,None,10,001,2022_Jul_12_1045,2leo,2021.2.3,60.00790904232768,
3,30,Plan your sport work out for tomorrow,Stimuli/30A1.jpg,Stimuli/30A2.jpg,Stimuli/30A3.jpg,Stimuli/30B1.jpg,Stimuli/30B2.jpg,Stimuli/30B3.jpg,Stimuli/30C1.jpg,Stimuli/30C2.jpg,Stimuli/30C3.jpg,,,,,0,30,30,30,,,,,,,,2831.1994021,None,2832.1993417000003,None,2838.1991791,None,"[-0.203, -0.347]","[-0.2, 0.346]","[0.399, -0.003]","[0.304, -0.26]","[-0.378, -0.136]","[0.07, 0.393]","[0.066, -0.395]","[-0.377, 0.138]","[0.306, 0.255]",,33.47266384000068,48.955502640000304,41.43954954000037,"[-0.1361111111111111, 0.26666666666666666, 0.05277777777777778]","[0.29444444444444445, 0.275, 0.362962962962963]","[1, 1, 1]","[0, 0, 0]","[0, 0, 0]","[33.46798849999959, 41.434245000000374, 48.950499700000364]",0.004168340000433091,48.95470274000036,['A2'],['B3'],['C3'],['blue'],['salmon'],['yellow'],2888.8142119000004,None,4.0,5.963877899999716,2888.8142119000004,None,2894.8974514,None,6.0,2.7645434999994905,2897.6308467,None,1.0,2.8988488999993933,2900.5141968999997,None,8.0,1.8152085000001534,<function functionImportanceB at 0x00000280832569D8>,<function functionImportanceC at 0x0000028083256A60>,<function functionImportanceA at 0x0000028083256BF8>,,,6.0,3.4812762000001385,3.0,2.1311554000003525,4.0,1.8152085000001534,<function functiondiffA at 0x0000028082C949D8>,<function functiondiffB at 0x0000028083256D08>,<function functiondiffC at 0x0000028083256598>,,,,,2839.3779925999997,2905.8639562999997,None,2907.9974414,None,2902.3473333,None,10,001,2022_Jul_12_1045,2leo,2021.2.3,60.00790904232768,
3,8,Plan the interior of your living-room ,Stimuli/8A1.jpg,Stimuli/8A2.jpg,Stimuli/8A3.jpg,Stimuli/8B1.jpg,Stimuli/8B2.jpg,Stimuli/8B3.jpg,Stimuli/8C1.jpg,Stimuli/8C2.jpg,Stimuli/8C3.jpg,,,,,0,31,31,8,,,,,,,,2912.0968000000003,None,2913.0971516,None,2919.0971529999997,None,"[-0.378, -0.136]","[0.07, 0.393]","[0.304, -0.26]","[-0.377, 0.138]","[0.306, 0.255]","[0.066, -0.395]","[-0.2, 0.346]","[0.399, -0.003]","[-0.203, -0.347]",,17.137541179990876,37.60382277999088,42.670886879990576,"[-0.38333333333333336, -0.337037037037037, -0.19814814814814816]","[-0.14444444444444443, 0.0787037037037037, 0.30833333333333335]","[1, 1, 1]","[0, 0, 0]","[0, 0, 0]","[17.131115899999713, 37.5971526000003, 42.66393119999975]",0.005932379990554182,42.66964097999062,['A1'],['B1'],['C1'],['blue'],['yellow'],['salmon'],2967.0622875999998,None,6.0,1.9797558000000208,2967.0622875999998,None,2976.4295052999996,None,2.0,4.248188499999742,2971.0287332,None,7.0,5.5809339999996155,2978.9620004,None,8.0,2.3150298999998995,<function functionImportanceC at 0x0000028081AA6B70>,<function functionImportanceB at 0x0000028081AA66A8>,<function functionImportanceA at 0x0000028083256EA0>,,,3.0,3.198190500000237,4.0,4.548047700000097,6.0,2.3150298999998995,<function functiondiffA at 0x0000028083256378>,<function functiondiffB at 0x0000028083256510>,<function functiondiffC at 0x0000028083256400>,,,,,2923.9320682999996,2985.0453412999996,None,2989.6619546,None,2981.2788447000003,None,10,001,2022_Jul_12_1045,2leo,2021.2.3,60.00790904232768,
3,28,Plan a one-week camping trip in Spain,Stimuli/28A1.jpg,Stimuli/28A2.jpg,Stimuli/28A3.jpg,Stimuli/28B1.jpg,Stimuli/28B2.jpg,Stimuli/28B3.jpg,Stimuli/28C1.jpg,Stimuli/28C2.jpg,Stimuli/28C3.jpg,,,,,0,32,32,28,,,,,,,,2997.494519,None,2998.4949737999996,None,3004.4950479,None,"[0.399, -0.003]","[-0.203, -0.347]","[-0.2, 0.346]","[0.306, 0.255]","[0.066, -0.395]","[-0.377, 0.138]","[0.07, 0.393]","[0.304, -0.26]","[-0.378, -0.136]",,28.42164367999885,27.522112979999292,19.922390079998877,"[0.3175925925925926, 0.1037037037037037, -0.16574074074074074]","[-0.24814814814814815, -0.3675925925925926, -0.3037037037037037]","[1, 1, 1]","[0, 0, 0]","[0, 0, 0]","[19.90913929999988, 27.509088099999644, 28.40891819999979]",0.012221079999108042,28.42096897999909,['A2'],['B2'],['C2'],['blue'],['yellow'],['salmon'],3034.5772348,None,9.0,1.897168899999997,3034.5772348,None,3041.2270981,None,8.0,2.0818311000002723,3036.5939307,None,6.0,4.631010699999933,3043.2938814,None,7.0,4.5316209000002345,<function functionImportanceC at 0x000002808213B268>,<function functionImportanceB at 0x0000028082C94048>,<function functionImportanceA at 0x0000028082C94D08>,,,3.0,3.0643653999995877,3.0,2.5649015999997573,2.0,4.5316209000002345,<function functiondiffA at 0x00000280832568C8>,<function functiondiffC at 0x00000280839B9510>,<function functiondiffB at 0x0000028083256E18>,,,,,3005.6825367,3054.6769608000004,None,3050.8934870000003,None,3047.8104228,None,10,001,2022_Jul_12_1045,2leo,2021.2.3,60.00790904232768,
3,0,Plan a barbecue,Stimuli/0A1.jpg,Stimuli/0A2.jpg,Stimuli/0A3.jpg,Stimuli/0B1.jpg,Stimuli/0B2.jpg,Stimuli/0B3.jpg,Stimuli/0C1.jpg,Stimuli/0C2.jpg,Stimuli/0C3.jpg,,,,,0,33,33,0,,,,,,,,3056.7596003999997,None,3057.7601936,None,3063.7600212999996,None,"[0.399, -0.003]","[-0.2, 0.346]","[-0.203, -0.347]","[0.306, 0.255]","[-0.377, 0.138]","[0.066, -0.395]","[0.07, 0.393]","[-0.378, -0.136]","[0.304, -0.26]",,34.00872841999626,24.80957491999561,44.359172319996105,"[0.30277777777777776, 0.4111111111111111, 0.03981481481481482]","[0.2490740740740741, 0.03333333333333333, 0.31666666666666665]","[1, 1, 1]","[0, 0, 0]","[0, 0, 0]","[24.796199699999306, 33.99564299999929, 44.34548679999989]",0.012696219995632418,44.358143719995496,['A1'],['B1'],['C1'],['salmon'],['yellow'],['blue'],3111.0585474,None,4.0,4.513890799999899,3111.0585474,None,3115.6418114,None,1.0,4.714501999999811,3120.3751406,None,-0.0,2.6315655999997034,3124.3442201,None,4.0,4.198523799999748,<function functionImportanceB at 0x0000028082C94730>,<function functionImportanceC at 0x0000028083256F28>,<function functionImportanceA at 0x0000028082C94378>,,,6.0,3.864269400000012,2.0,2.131172499999593,4.0,4.198523799999748,<function functiondiffC at 0x00000280839B92F0>,<function functiondiffB at 0x0000028083256268>,<function functiondiffA at 0x0000028083256950>,,,,,3066.2430937,3131.5912962,None,3127.2082794,None,3134.1246529,None,10,001,2022_Jul_12_1045,2leo,2021.2.3,60.00790904232768,
3,1,Plan how to study for an exam,Stimuli/1A1.jpg,Stimuli/1A2.jpg,Stimuli/1A3.jpg,Stimuli/1B1.jpg,Stimuli/1B2.jpg,Stimuli/1B3.jpg,Stimuli/1C1.jpg,Stimuli/1C2.jpg,Stimuli/1C3.jpg,,,,,0,34,34,1,,,,,,,,3137.1241782999996,None,3138.1248365,None,3144.1246205999996,None,"[0.306, 0.255]","[0.066, -0.395]","[-0.377, 0.138]","[0.07, 0.393]","[0.304, -0.26]","[-0.378, -0.136]","[0.399, -0.003]","[-0.203, -0.347]","[-0.2, 0.346]",,28.109057019999454,19.45957401999931,13.409997119999389,"[-0.1638888888888889, -0.3287037037037037, 0.36018518518518516]","[0.29074074074074074, -0.18425925925925926, 0.23981481481481481]","[1, 1, 1]","[0, 0, 0]","[0, 0, 0]","[13.403317299999799, 19.45314640000015, 28.10307130000001]",0.005569619999732822,28.10848591999911,['A1'],['B3'],['C3'],['salmon'],['yellow'],['blue'],3173.8401299999996,None,9.0,2.2295220999994854,3173.8401299999996,None,3181.5901702,None,6.0,2.2648968999992576,3176.1069909,None,7.0,3.281220600000779,3179.4734105999996,None,8.0,2.1321318000000247,<function functionImportanceC at 0x00000280839B9268>,<function functionImportanceA at 0x0000028083256620>,<function functionImportanceB at 0x00000280839B9048>,,,4.0,3.530928099999983,1.0,3.014751400000023,3.0,2.1321318000000247,<function functiondiffC at 0x00000280839B9B70>,<function functiondiffA at 0x00000280839B91E0>,<function functiondiffB at 0x00000280839B9A60>,,,,,3145.25306,3190.4733085999997,None,3183.8234402999997,None,3186.9401156000004,None,10,001,2022_Jul_12_1045,2leo,2021.2.3,60.00790904232768,
3,3,Plan a movie night with a friend,Stimuli/3A1.jpg,Stimuli/3A2.jpg,Stimuli/3A3.jpg,Stimuli/3B1.jpg,Stimuli/3B2.jpg,Stimuli/3B3.jpg,Stimuli/3C1.jpg,Stimuli/3C2.jpg,Stimuli/3C3.jpg,,,,,0,35,35,3,,,,,,,,3193.0226875999997,None,3194.0230769,None,3200.0230365999996,None,"[0.306, 0.255]","[0.066, -0.395]","[-0.377, 0.138]","[0.399, -0.003]","[-0.203, -0.347]","[-0.2, 0.346]","[0.07, 0.393]","[0.304, -0.26]","[-0.378, -0.136]",,37.020861919994786,24.721204319994285,7.288968919994659,"[0.3509259259259259, -0.21296296296296297, -0.3685185185185185]","[-0.3037037037037037, -0.33425925925925926, 0.16018518518518518]","[1, 1, 1]","[0, 0, 0]","[0, 0, 0]","[7.280273499999566, 24.71274639999956, 37.01260490000004]",0.0076502199945025495,37.019984819994534,['A3'],['B2'],['C2'],['salmon'],['yellow'],['blue'],3241.088345,None,8.0,3.147345800000039,3241.088345,None,3245.0050706,None,6.0,4.665062199999738,3250.6880643000004,None,3.0,4.781211299999995,3253.7881722,None,6.0,2.2651496000007683,<function functionImportanceB at 0x00000280839B9488>,<function functionImportanceC at 0x00000280839B9158>,<function functionImportanceA at 0x00000280839B96A8>,,,6.0,3.347700700000132,4.0,4.514444500000536,-0.0,2.2651496000007683,<function functiondiffC at 0x00000280839B9400>,<function functiondiffA at 0x00000280832560D0>,<function functiondiffB at 0x0000028081AA6AE8>,,,,,3203.6080996,3263.4545371000004,None,3256.4216032000004,None,3259.6881289000003,None,10,001,2022_Jul_12_1045,2leo,2021.2.3,60.00790904232768,
3,37,Plan your cleaning routine ,Stimuli/37A1.jpg,Stimuli/37A2.jpg,Stimuli/37A3.jpg,Stimuli/37B1.jpg,Stimuli/37B2.jpg,Stimuli/37B3.jpg,Stimuli/37C1.jpg,Stimuli/37C2.jpg,Stimuli/37C3.jpg,,,,,0,36,36,37,,,,,,,,3267.0873579,None,3268.0879784999997,None,3274.0878444,None,"[0.066, -0.395]","[-0.377, 0.138]","[0.306, 0.255]","[-0.203, -0.347]","[-0.2, 0.346]","[0.399, -0.003]","[0.304, -0.26]","[-0.378, -0.136]","[0.07, 0.393]",,27.27635583999927,41.87642393999977,17.393893439999374,"[-0.387037037037037, -0.30462962962962964, -0.1962962962962963]","[-0.15462962962962962, 0.18333333333333332, 0.30092592592592593]","[1, 1, 1]","[0, 0, 0]","[0, 0, 0]","[17.3785127000001, 27.261455199999546, 41.86129669999991]",0.014359639999383944,41.8753135399993,['A2'],['B2'],['C2'],['blue'],['salmon'],['yellow'],3317.6030189000003,None,9.0,2.446904800000084,3317.6030189000003,None,3327.0360982,None,7.0,2.5151722999999038,3323.8195752,None,3.0,3.2152310999999827,3320.1197885,None,6.0,3.647712599999977,<function functionImportanceA at 0x0000028082C94EA0>,<function functionImportanceC at 0x00000280839B9AE8>,<function functionImportanceB at 0x00000280839B9D08>,,,6.0,7.531143500000326,4.0,4.413933000000725,1.0,3.647712599999977,<function functiondiffB at 0x00000280839B98C8>,<function functiondiffC at 0x00000280839B9BF8>,<function functiondiffA at 0x00000280839B9C80>,,,,,3275.2567337,3329.5196278000003,None,3333.9526347,None,3336.9527065,None,10,001,2022_Jul_12_1045,2leo,2021.2.3,60.00790904232768,
3,19,Plan how you want your garden to look like,Stimuli/19A1.jpg,Stimuli/19A2.jpg,Stimuli/19A3.jpg,Stimuli/19B1.jpg,Stimuli/19B2.jpg,Stimuli/19B3.jpg,Stimuli/19C1.jpg,Stimuli/19C2.jpg,Stimuli/19C3.jpg,,,,,0,37,37,19,,,,,,,,3344.0020354,None,3345.0025364000003,None,3351.0024540000004,None,"[0.066, -0.395]","[-0.377, 0.138]","[0.306, 0.255]","[0.304, -0.26]","[-0.378, -0.136]","[0.07, 0.393]","[-0.203, -0.347]","[-0.2, 0.346]","[0.399, -0.003]",,30.85368727999412,19.25420187999407,42.95376597999439,"[-0.32222222222222224, 0.05462962962962963, -0.2212962962962963]","[-0.12314814814814815, -0.3435185185185185, -0.31203703703703706]","[1, 1, 1]","[0, 0, 0]","[0, 0, 0]","[19.245536399999764, 30.845436300000074, 42.94497479999973]",0.007845679994716193,42.95273597999403,['A1'],['B2'],['C1'],['salmon'],['yellow'],['blue'],3398.0675138999995,None,6.0,2.146534299999985,3398.0675138999995,None,3412.2863762999996,None,2.0,3.1150150000003123,3401.6510338999997,None,4.0,8.680727000000843,3409.0008071,None,2.0,2.1986777000001894,<function functionImportanceC at 0x0000028084013598>,<function functionImportanceA at 0x00000280839B9730>,<function functionImportanceB at 0x00000280840136A8>,,,3.0,3.331311600000845,0.0,3.097688500000004,6.0,2.1986777000001894,<function functiondiffA at 0x00000280839B9EA0>,<function functiondiffB at 0x00000280839B9598>,<function functiondiffC at 0x00000280839B9620>,,,,,3354.6563859,3417.9005977999996,None,3421.1565019,None,3414.3007432000004,None,10,001,2022_Jul_12_1045,2leo,2021.2.3,60.00790904232768,
3,23,Plan a city trip,Stimuli/23A1.jpg,Stimuli/23A2.jpg,Stimuli/23A3.jpg,Stimuli/23B1.jpg,Stimuli/23B2.jpg,Stimuli/23B3.jpg,Stimuli/23C1.jpg,Stimuli/23C2.jpg,Stimuli/23C3.jpg,,,,,0,38,38,23,,,,,,,,3423.0333247999997,None,3424.0337609,None,3430.0337737,None,"[0.304, -0.26]","[0.07, 0.393]","[-0.378, -0.136]","[0.066, -0.395]","[0.306, 0.255]","[-0.377, 0.138]","[-0.203, -0.347]","[0.399, -0.003]","[-0.2, 0.346]",,10.10353257999941,49.286122479998994,51.070069579999654,"[0.040740740740740744, 0.041666666666666664, 0.44074074074074077]","[0.30925925925925923, -0.34814814814814815, 0.025]","[1, 1, 1]","[0, 0, 0]","[0, 0, 0]","[10.100292899999658, 49.282647900000484, 51.0661713999998]",0.0027426799997556373,51.06841577999967,['A2'],['B1'],['C2'],['salmon'],['yellow'],['blue'],3482.7819915,None,8.0,2.479785399999855,3482.7819915,None,3485.3530569000004,None,10.0,4.3980664999999135,3492.1317081999996,None,7.0,2.9982835999999224,3489.7319823999997,None,8.0,2.2986158999992767,<function functionImportanceB at 0x0000028084013378>,<function functionImportanceA at 0x0000028084013D08>,<function functionImportanceC at 0x00000280840131E0>,,,1.0,2.814404800000375,9.0,2.3315044999999373,4.0,2.2986158999992767,<function functiondiffA at 0x00000280839B9840>,<function functiondiffB at 0x00000280839B99D8>,<function functiondiffC at 0x0000028084013158>,,,,,3431.2314810999997,3497.8818178,None,3500.2316344,None,3495.0485947999996,None,10,001,2022_Jul_12_1045,2leo,2021.2.3,60.00790904232768,
3,40,Plan to see a sports event ,Stimuli/40A1.jpg,Stimuli/40A2.jpg,Stimuli/40A3.jpg,Stimuli/40B1.jpg,Stimuli/40B2.jpg,Stimuli/40B3.jpg,Stimuli/40C1.jpg,Stimuli/40C2.jpg,Stimuli/40C3.jpg,,,,,0,39,39,40,,,,,,,,3502.9649090000003,None,3503.9650481999997,None,3509.9648964999997,None,"[0.304, -0.26]","[0.07, 0.393]","[-0.378, -0.136]","[0.066, -0.395]","[0.306, 0.255]","[-0.377, 0.138]","[-0.203, -0.347]","[0.399, -0.003]","[-0.2, 0.346]",,28.761342979999426,25.878219179999178,33.32816697999897,"[-0.42314814814814816, 0.05277777777777778, -0.16203703703703703]","[0.13333333333333333, 0.37407407407407406, 0.2972222222222222]","[1, 1, 1]","[0, 0, 0]","[0, 0, 0]","[25.861258500000076, 28.74478480000016, 33.31097450000016]",0.01607357999910164,33.32696687999942,['A2'],['B3'],['C3'],['yellow'],['salmon'],['blue'],3545.1137280000003,None,9.0,3.4140262999999322,3545.1137280000003,None,3548.7303795999997,None,6.0,3.2648038000006636,3556.0302346999997,None,4.0,3.4816749999999956,3551.8967317999995,None,7.0,4.131934499999261,<function functionImportanceB at 0x00000280840138C8>,<function functionImportanceA at 0x0000028084013730>,<function functionImportanceC at 0x0000028084013B70>,,,6.0,5.76427700000022,2.0,7.997943000000305,1.0,4.131934499999261,<function functiondiffA at 0x0000028084013048>,<function functiondiffC at 0x0000028084013620>,<function functiondiffB at 0x0000028084013400>,,,,,3511.3186526,3568.0632855000003,None,3565.2798354999995,None,3559.4968434,None,10,001,2022_Jul_12_1045,2leo,2021.2.3,60.00790904232768,
3,33,Plan the items to decorate your Christmas tree,Stimuli/33A1.jpg,Stimuli/33A2.jpg,Stimuli/33A3.jpg,Stimuli/33B1.jpg,Stimuli/33B2.jpg,Stimuli/33B3.jpg,Stimuli/33C1.jpg,Stimuli/33C2.jpg,Stimuli/33C3.jpg,,,,,0,40,40,33,,,,,,,,3575.5463149999996,None,3576.5464900999996,None,3582.5463499999996,None,"[-0.203, -0.347]","[-0.2, 0.346]","[0.399, -0.003]","[0.304, -0.26]","[-0.378, -0.136]","[0.07, 0.393]","[0.066, -0.395]","[-0.377, 0.138]","[0.306, 0.255]",,14.058152619999419,22.00811961999989,26.741573719999906,"[-0.14351851851851852, 0.36574074074074076, 0.3472222222222222]","[0.325, -0.31296296296296294, 0.2675925925925926]","[1, 1, 1]","[0, 0, 0]","[0, 0, 0]","[14.041435699999965, 21.991268200000377, 26.72425470000053]",0.016171819999726722,26.74041391999981,['A2'],['B1'],['C3'],['blue'],['salmon'],['yellow'],3611.4619777999997,None,6.0,2.797778300000573,3611.4619777999997,None,3622.8119053,None,2.0,2.8816752000002452,3614.3453812999996,None,1.0,3.6643448000004355,3618.5287564,None,6.0,4.782406599999376,<function functionImportanceC at 0x0000028084013BF8>,<function functionImportanceA at 0x00000280840132F0>,<function functionImportanceB at 0x0000028084013C80>,,,2.0,2.2144788000005065,2.0,2.364442500000223,3.0,4.782406599999376,<function functiondiffC at 0x0000028084013950>,<function functiondiffB at 0x0000028084013EA0>,<function functiondiffA at 0x0000028084013268>,,,,,3584.2690790999995,3629.4282559000003,None,3625.6785149999996,None,3631.9282801,None,10,001,2022_Jul_12_1045,2leo,2021.2.3,60.00790904232768,
3,14,Plan your own Pizza for dinner,Stimuli/14A1.jpg,Stimuli/14A2.jpg,Stimuli/14A3.jpg,Stimuli/14B1.jpg,Stimuli/14B2.jpg,Stimuli/14B3.jpg,Stimuli/14C1.jpg,Stimuli/14C2.jpg,Stimuli/14C3.jpg,,,,,0,41,41,14,,,,,,,,3633.5449881000004,None,3634.5447642,None,3640.5446706000002,None,"[-0.203, -0.347]","[-0.2, 0.346]","[0.399, -0.003]","[0.066, -0.395]","[-0.377, 0.138]","[0.306, 0.255]","[0.304, -0.26]","[-0.378, -0.136]","[0.07, 0.393]",,25.617049779999434,12.25071717999981,16.684186179999415,"[0.040740740740740744, -0.34444444444444444, 0.4842592592592593]","[-0.3685185185185185, -0.09814814814814815, 0.016666666666666666]","[1, 1, 1]","[0, 0, 0]","[0, 0, 0]","[12.240388899999743, 16.673534499999732, 25.606826499999443]",0.009625779999623774,25.616096679999828,['A3'],['B1'],['C2'],['salmon'],['blue'],['yellow'],3667.8271951999996,None,7.0,3.34659769999962,3667.8271951999996,None,3678.4437078,None,9.0,1.8651136000007682,3674.2271045999996,None,7.0,4.148237999999765,3671.2605587,None,6.0,2.9818793000004007,<function functionImportanceA at 0x00000280839B90D0>,<function functionImportanceC at 0x00000280846028C8>,<function functionImportanceB at 0x0000028084013840>,,,3.0,2.0313336999997773,-0.0,1.7641594999995505,1.0,2.9818793000004007,<function functiondiffC at 0x00000280832562F0>,<function functiondiffA at 0x0000028084013D90>,<function functiondiffB at 0x0000028084013510>,,,,,3641.7357565,3685.1101945,None,3680.2602888,None,3683.0435905000004,None,10,001,2022_Jul_12_1045,2leo,2021.2.3,60.00790904232768,
3,39,Plan what kind of watch you want to buy,Stimuli/39A1.jpg,Stimuli/39A2.jpg,Stimuli/39A3.jpg,Stimuli/39B1.jpg,Stimuli/39B2.jpg,Stimuli/39B3.jpg,Stimuli/39C1.jpg,Stimuli/39C2.jpg,Stimuli/39C3.jpg,,,,,0,42,42,39,,,,,,,,3686.3772458000003,None,3687.3766975,None,3693.3768216999997,None,"[0.07, 0.393]","[0.304, -0.26]","[-0.378, -0.136]","[0.306, 0.255]","[0.066, -0.395]","[-0.377, 0.138]","[0.399, -0.003]","[-0.203, -0.347]","[-0.2, 0.346]",,13.43946453999979,14.755684039999323,22.722729739999522,"[0.08796296296296297, 0.03981481481481482, -0.21388888888888888]","[0.39166666666666666, -0.41388888888888886, -0.31203703703703706]","[1, 1, 1]","[0, 0, 0]","[0, 0, 0]","[13.450997900000402, 14.751156100000117, 22.717936799999734]",0.003769639999518404,22.721363239999846,['A1'],['B2'],['C2'],['salmon'],['blue'],['yellow'],3717.7591613000004,None,9.0,2.7805324000000837,3717.7591613000004,None,3728.8930687,None,6.0,3.3484072999999626,3725.5922403000004,None,3.0,3.3484041000001525,3720.6091558999997,None,4.0,4.9292051000002175,<function functionImportanceA at 0x00000280846022F0>,<function functionImportanceC at 0x0000028084602730>,<function functionImportanceB at 0x0000028084602400>,,,2.0,2.7644599000004746,1.0,2.747392899999795,3.0,4.9292051000002175,<function functiondiffB at 0x0000028084013488>,<function functiondiffA at 0x00000280839B97B8>,<function functiondiffC at 0x00000280846026A8>,,,,,3694.5561580000003,3732.2589215,None,3737.8088847999998,None,3735.0256679000004,None,10,001,2022_Jul_12_1045,2leo,2021.2.3,60.00790904232768,
3,4,Plan a game night at your place,Stimuli/4A1.jpg,Stimuli/4A2.jpg,Stimuli/4A3.jpg,Stimuli/4B1.jpg,Stimuli/4B2.jpg,Stimuli/4B3.jpg,Stimuli/4C1.jpg,Stimuli/4C2.jpg,Stimuli/4C3.jpg,,,,,0,43,43,4,,,,,,,,3739.4260999,None,3740.4255709,None,3746.4252684000003,None,"[-0.377, 0.138]","[0.066, -0.395]","[0.306, 0.255]","[-0.2, 0.346]","[-0.203, -0.347]","[0.399, -0.003]","[-0.378, -0.136]","[0.304, -0.26]","[0.07, 0.393]",,21.257408199994643,31.025473099994997,32.190934799995375,"[0.3527777777777778, 0.3398148148148148]","[0.17592592592592593, -0.06851851851851852]","[1, 1]","[0, 0]","[0, 0]","[21.239999499999612, 31.007757899999888]",0.016769899994869775,32.18948919999548,['A3'],['B3'],['C3'],['yellow'],['salmon'],['blue'],3782.5075061999996,None,8.0,3.296814799999993,3782.5075061999996,None,3785.8408702999996,None,6.0,3.1810670999993818,3790.3762929000004,None,6.0,7.565119400000185,3797.6405320000003,None,2.0,2.664893099999972,<function functionImportanceB at 0x0000028084602488>,<function functionImportanceC at 0x0000028084602E18>,<function functionImportanceA at 0x0000028084602F28>,,,1.0,4.064185700000053,6.0,3.181255699999383,6.0,2.664893099999972,<function functiondiffA at 0x00000280840139D8>,<function functiondiffC at 0x0000028084602840>,<function functiondiffB at 0x0000028084013F28>,,,,,3749.8694271000004,3807.3236527,None,3803.7403582999996,None,3799.6072701000003,None,10,001,2022_Jul_12_1045,2leo,2021.2.3,60.00790904232768,
3,16,Plan a delicious cake for the birthday of a friend,Stimuli/16A1.jpg,Stimuli/16A2.jpg,Stimuli/16A3.jpg,Stimuli/16B1.jpg,Stimuli/16B2.jpg,Stimuli/16B3.jpg,Stimuli/16C1.jpg,Stimuli/16C2.jpg,Stimuli/16C3.jpg,,,,,0,44,44,16,,,,,,,,3810.024515,None,3811.0236453999996,None,3817.023534,None,"[-0.2, 0.346]","[-0.203, -0.347]","[0.399, -0.003]","[-0.378, -0.136]","[0.304, -0.26]","[0.07, 0.393]","[-0.377, 0.138]","[0.066, -0.395]","[0.306, 0.255]",,22.68194621999828,26.432049019998885,27.298780319998514,"[-0.15555555555555556, -0.3425925925925926, 0.10185185185185185]","[-0.325, -0.12407407407407407, -0.3731481481481482]","[1, 1, 1]","[0, 0, 0]","[0, 0, 0]","[22.6794275000002, 26.42937669999992, 27.29576670000006]",0.001975419998416328,27.29766861999815,['A2'],['B1'],['C2'],['salmon'],['yellow'],['blue'],3846.2722391999996,None,6.0,9.030500799999572,3846.2722391999996,None,3868.9884058,None,2.0,2.598528299999998,3855.4722111,None,1.0,13.380619999999908,3871.4053249,None,7.0,2.464885100000174,<function functionImportanceC at 0x0000028084602A60>,<function functionImportanceB at 0x0000028084602B70>,<function functionImportanceA at 0x0000028084602510>,,,2.0,2.9477348000000347,3.0,4.314404800000375,0.0,2.464885100000174,<function functiondiffA at 0x00000280839B9378>,<function functiondiffB at 0x0000028083256D90>,<function functiondiffC at 0x0000028084013E18>,,,,,3818.4928886,3876.8383941,None,3881.1550558999998,None,3873.8384067999996,None,10,001,2022_Jul_12_1045,2leo,2021.2.3,60.00790904232768,
