Condition,N_Scenario,written_scenario,ImageA1,ImageA2,ImageA3,ImageB1,ImageB2,ImageB3,ImageC1,ImageC2,ImageC3,trials_2.thisRepN,trials_2.thisTrialN,trials_2.thisN,trials_2.thisIndex,trial.thisRepN,trial.thisTrialN,trial.thisN,trial.thisIndex,button_2.started,button_2.stopped,button_2.numClicks,button_2.timesOn,button_2.timesOff,text.started,text.stopped,fixationcross1_started,fixationcross1_stopped,Scenario_started,Scenario_stopped,fixationcross2_started,fixationcross2_stopped,A1pos,A2pos,A3pos,B1pos,B2pos,B3pos,C1pos,C2pos,C3pos,﻿Imagesdecision_started,decisiontimeA,decisiontimeB,decisiontimeC,mouse_x,mouse_y,mouse_leftButton,mouse_midButton,mouse_rightButton,mouse_time,mouse_started,mouse_stopped,clicked_optionA,clicked_optionB,clicked_optionC,colour_category_A,colour_category_B,colour_category_C,question_confidence_started,question_confidence_stopped,slider_confidence_response,slider_confidence_rt,slider_confidence_started,slider_confidence_stopped,question_valueB_started,question_valueB_stopped,slider_valueB_response,slider_valueB_rt,question_valueA_started,question_valueA_stopped,slider_valueA_response,slider_valueA_rt,question_valueC_started,question_valueC_stopped,slider_valueC_response,slider_valueC_rt,Importance_First,Importance_Second,Importance_Third,question_diff_started,question_diff_stopped,slider_diffB_response,slider_diffB_rt,slider_diffC_response,slider_diffC_rt,slider_diffA_response,slider_diffA_rt,diff_First,diff_Second,diff_Third,button_3_started,button_3_stopped,text_2_started,text_2_stopped,Imagesdecision_started,question_diffC_started,question_diffC_stopped,question_diffA_started,question_diffA_stopped,question_diffB_started,question_diffB_stopped,participant,session,date,expName,psychopyVersion,frameRate,
3,2,Plan a party to celebrate your birthday,Stimuli/2A1t.jpg,Stimuli/2A2t.jpg,Stimuli/2A3t.jpg,Stimuli/2B1t.jpg,Stimuli/2B2t.jpg,Stimuli/2B3t.jpg,Stimuli/2C1t.jpg,Stimuli/2C2t.jpg,Stimuli/2C3t.jpg,0,0,0,0,,,,,26.00726389999909,None,1,[5.809687500004657],[5.809691500006011],26.00726389999909,None,65.20470869999554,None,66.21229739999399,None,72.21216890000505,None,"[0.399, -0.003]","[-0.2, 0.346]","[-0.203, -0.347]","[0.07, 0.393]","[-0.378, -0.136]","[0.304, -0.26]","[0.306, 0.255]","[-0.377, 0.138]","[0.066, -0.395]",76.24168019999343,7.301038500023424,50.18333240001812,54.05024510002113,"[0.37407407407407406, -0.17222222222222222, 0.3314814814814815, 0.30925925925925923, -0.37037037037037035]","[-0.017592592592592594, -0.3592592592592593, -0.021296296296296296, -0.23703703703703705, 0.14537037037037037]","[1, 1, 1, 1, 1]","[0, 0, 0, 0, 0]","[0, 0, 0, 0, 0]","[7.284276000005775, 20.6004144000035, 24.466769999999087, 50.166090099999565, 54.032832900003996]",0.01634750001539942,54.04898080001294,['A1'],['B3'],['C2'],['salmon'],['blue'],['yellow'],130.7436555000022,None,9.0,5.029110100003891,130.7436555000022,None,137.41018789999362,None,10.0,13.414040400006343,150.5932327000046,None,6.0,9.346853199996985,158.65967049999745,None,3.0,3.0315667999966536,<function functionImportanceBt at 0x0000023ED4171E18>,<function functionImportanceAt at 0x0000023ED6273268>,<function functionImportanceCt at 0x0000023EE3751D90>,171.64273789999424,None,2.0,5.764106100003119,8.0,3.730986100010341,2.0,9.346853199996985,<function functiondiffBt at 0x0000023EE4596AE8>,<function functiondiffCt at 0x0000023EE4596A60>,<function functiondiffAt at 0x0000023EE4596C80>,,,,,,,,,,,,006,001,2022_Jun_14_1018,2leo,2021.2.3,59.978683572395056,
3,3,Plan one week of vacation,Stimuli/3A1t.jpg,Stimuli/3A2t.jpg,Stimuli/3A3t.jpg,Stimuli/3B1t.jpg,Stimuli/3B2t.jpg,Stimuli/3B3t.jpg,Stimuli/3C1t.jpg,Stimuli/3C2t.jpg,Stimuli/3C3t.jpg,0,1,1,1,,,,,,,,,,,,177.40926149999723,None,178.40924470000027,None,184.40908889999264,None,"[0.306, 0.255]","[0.066, -0.395]","[-0.377, 0.138]","[0.07, 0.393]","[0.304, -0.26]","[-0.378, -0.136]","[0.399, -0.003]","[-0.203, -0.347]","[-0.2, 0.346]",190.52080739999656,13.316065240011085,17.399205540015828,9.016610940016108,"[0.3574074074074074, 0.0824074074074074, 0.10740740740740741]","[0.025, -0.4111111111111111, 0.43148148148148147]","[1, 1, 1]","[0, 0, 0]","[0, 0, 0]","[9.005762800006778, 13.305666000000201, 17.38860290001321]",0.009884740007692017,17.3983814400126,['A2'],['B1'],['C1'],['blue'],['salmon'],['yellow'],208.3749705999944,None,10.0,3.4309610000054818,208.3749705999944,None,219.94402389999595,None,2.0,6.348049800013541,213.77627059999213,None,10.0,6.347843499999726,226.04485069999646,None,7.0,5.11542190000182,<function functionImportanceAt at 0x0000023ED10231E0>,<function functionImportanceBt at 0x0000023EE3610EA0>,<function functionImportanceCt at 0x0000023EE0A30F28>,243.4742852999916,None,3.0,9.781021399991005,7.0,5.514648900003522,0.0,6.347843499999726,<function functiondiffAt at 0x0000023EE4596D90>,<function functiondiffCt at 0x0000023EE4596E18>,<function functiondiffBt at 0x0000023EE4596730>,,,,,,,,,,,,006,001,2022_Jun_14_1018,2leo,2021.2.3,59.978683572395056,
3,26,Plan how to wash one round of your laundry ,Stimuli/26A1.jpg,Stimuli/26A2.jpg,Stimuli/26A3.jpg,Stimuli/26B1.jpg,Stimuli/26B2.jpg,Stimuli/26B3.jpg,Stimuli/26C1.jpg,Stimuli/26C2.jpg,Stimuli/26C3.jpg,,,,,0,0,0,26,,,,,,,,301.9894972000038,None,302.9725921999925,None,308.97247019999486,None,"[-0.2, 0.346]","[0.399, -0.003]","[-0.203, -0.347]","[-0.378, -0.136]","[0.07, 0.393]","[0.304, -0.26]","[-0.377, 0.138]","[0.306, 0.255]","[0.066, -0.395]",,8.394728380008019,19.61153708001075,15.378067480007303,"[-0.1648148148148148, -0.37962962962962965, 0.2740740740740741]","[0.30925925925925923, 0.11481481481481481, -0.2814814814814815]","[1, 1, 1]","[0, 0, 0]","[0, 0, 0]","[8.387677499995334, 15.370486300002085, 19.604009499991662]",0.006501480005681515,19.610471280000638,['A1'],['B3'],['C1'],['blue'],['yellow'],['salmon'],330.2384306000022,None,10.0,2.4456386999954702,330.2384306000022,None,332.8053685999912,None,10.0,8.214189699996496,341.038112299997,None,10.0,7.064912300003925,348.08817609999096,None,3.0,3.681697099993471,<function functionImportanceB at 0x0000023EE37519D8>,<function functionImportanceA at 0x0000023EE4596D08>,<function functionImportanceC at 0x0000023E87816730>,,,-0.0,3.281079199994565,1.0,7.064912300003925,4.0,6.614089599999716,<function functiondiffC at 0x0000023EE4596EA0>,<function functiondiffA at 0x0000023EE4596620>,<function functiondiffB at 0x0000023EE4596510>,252.3904612000042,None,252.3904612000042,None,310.15288330000476,351.7379428999993,None,357.8545918000018,None,364.48759900000005,None,006,001,2022_Jun_14_1018,2leo,2021.2.3,59.978683572395056,
3,43,Plan your dream house,Stimuli/43A1.jpg,Stimuli/43A2.jpg,Stimuli/43A3.jpg,Stimuli/43B1.jpg,Stimuli/43B2.jpg,Stimuli/43B3.jpg,Stimuli/43C1.jpg,Stimuli/43C2.jpg,Stimuli/43C3.jpg,,,,,0,1,1,43,,,,,,,,367.2876188999944,None,368.28762799999095,None,374.2874368000048,None,"[-0.378, -0.136]","[0.07, 0.393]","[0.304, -0.26]","[-0.2, 0.346]","[0.399, -0.003]","[-0.203, -0.347]","[-0.377, 0.138]","[0.306, 0.255]","[0.066, -0.395]",,23.03914170002099,25.906239800009644,14.306910700019216,"[0.13148148148148148, 0.1037037037037037, 0.44074074074074077]","[-0.3712962962962963, 0.37592592592592594, 0.01574074074074074]","[1, 1, 1]","[0, 0, 0]","[0, 0, 0]","[14.30178480000177, 23.03463590001047, 25.901494600009755]",0.003956100015784614,25.905156100008753,['A2'],['B2'],['C3'],['salmon'],['blue'],['yellow'],401.8366182000027,None,8.0,2.7136218000086956,401.8366182000027,None,413.9029392999946,None,2.0,1.8484496000019135,410.91976079999586,None,7.0,2.9985665999993216,404.60329099999217,None,10.0,6.264357500011101,<function functionImportanceC at 0x0000023E87816378>,<function functionImportanceA at 0x0000023EE4596F28>,<function functionImportanceB at 0x0000023E87816A60>,,,2.0,5.064173599996138,10.0,2.9985665999993216,4.0,6.014829799998552,<function functiondiffB at 0x0000023EE4596840>,<function functiondiffA at 0x0000023EE45966A8>,<function functiondiffC at 0x0000023EE45962F0>,,,,,375.4493332999991,426.8693440999923,None,420.83624119999877,None,415.7528835999983,None,006,001,2022_Jun_14_1018,2leo,2021.2.3,59.978683572395056,
3,44,Plan a party at your place,Stimuli/44A1.jpg,Stimuli/44A2.jpg,Stimuli/44A3.jpg,Stimuli/44B1.jpg,Stimuli/44B2.jpg,Stimuli/44B3.jpg,Stimuli/44C1.jpg,Stimuli/44C2.jpg,Stimuli/44C3.jpg,,,,,0,2,2,44,,,,,,,,428.51915619999636,None,429.51911839999957,None,435.51917010000034,None,"[0.304, -0.26]","[-0.378, -0.136]","[0.07, 0.393]","[0.066, -0.395]","[-0.377, 0.138]","[0.306, 0.255]","[-0.203, -0.347]","[-0.2, 0.346]","[0.399, -0.003]",,7.343919119986822,14.244045119994553,19.260697719990276,"[0.020370370370370372, 0.2361111111111111, -0.21388888888888888]","[0.3351851851851852, 0.22314814814814815, 0.3037037037037037]","[1, 1, 1]","[0, 0, 0]","[0, 0, 0]","[7.33732050000981, 14.237137000003713, 19.253661800001282]",0.0059912199940299615,19.259496219994617,['A3'],['B3'],['C2'],['salmon'],['blue'],['yellow'],456.401769899996,None,10.0,2.4807018999999855,456.401769899996,None,462.8851566999947,None,8.0,7.148442299992894,470.034857199993,None,2.0,8.598119000002043,458.95179920000373,None,2.0,3.9147846000123536,<function functionImportanceC at 0x0000023E87816048>,<function functionImportanceB at 0x0000023E87816598>,<function functionImportanceA at 0x0000023E87816AE8>,,,6.0,5.197403199999826,-0.0,8.598119000002043,9.0,6.08122629999707,<function functiondiffB at 0x0000023E87816268>,<function functiondiffC at 0x0000023E87816840>,<function functiondiffA at 0x0000023E878168C8>,,,,,436.6626352000021,483.8512181999977,None,486.21780089999083,None,478.6512294999993,None,006,001,2022_Jun_14_1018,2leo,2021.2.3,59.978683572395056,
3,3,Plan a movie night with a friend,Stimuli/3A1.jpg,Stimuli/3A2.jpg,Stimuli/3A3.jpg,Stimuli/3B1.jpg,Stimuli/3B2.jpg,Stimuli/3B3.jpg,Stimuli/3C1.jpg,Stimuli/3C2.jpg,Stimuli/3C3.jpg,,,,,0,3,3,3,,,,,,,,491.81771149999986,None,492.81752060000144,None,498.81757270000526,None,"[-0.203, -0.347]","[-0.2, 0.346]","[0.399, -0.003]","[0.304, -0.26]","[-0.378, -0.136]","[0.07, 0.393]","[0.066, -0.395]","[-0.377, 0.138]","[0.306, 0.255]",,16.456193740013987,7.673128140013432,10.59020784002496,"[0.032407407407407406, -0.31666666666666665, 0.4527777777777778]","[0.35833333333333334, 0.08981481481481482, -0.03518518518518519]","[1, 1, 1]","[0, 0, 0]","[0, 0, 0]","[7.663959800003795, 10.580880800000159, 16.447306000001845]",0.008291940015624277,16.45522894001624,['A3'],['B3'],['C2'],['salmon'],['yellow'],['blue'],519.3168184999959,None,10.0,3.130605199999991,519.3168184999959,None,528.9673848999955,None,9.0,3.8317672999983188,522.5168296000047,None,5.0,5.697759799993946,533.8168978000031,None,10.0,3.765161100003752,<function functionImportanceA at 0x0000023E878167B8>,<function functionImportanceB at 0x0000023E87816158>,<function functionImportanceC at 0x0000023E80374598>,,,8.0,7.2316990999970585,0.0,5.697759799993946,5.0,4.614216799993301,<function functiondiffA at 0x0000023E878169D8>,<function functiondiffB at 0x0000023E87816F28>,<function functiondiffC at 0x0000023E878166A8>,,,,,502.4029470999958,548.0828875000007,None,535.8331542999949,None,540.8663912999909,None,006,001,2022_Jun_14_1018,2leo,2021.2.3,59.978683572395056,
3,22,Plan a beach day with your friends,Stimuli/22A1.jpg,Stimuli/22A2.jpg,Stimuli/22A3.jpg,Stimuli/22B1.jpg,Stimuli/22B2.jpg,Stimuli/22B3.jpg,Stimuli/22C1.jpg,Stimuli/22C2.jpg,Stimuli/22C3.jpg,,,,,0,4,4,22,,,,,,,,551.0661199000024,None,552.0660668999917,None,558.0660996999941,None,"[0.399, -0.003]","[-0.2, 0.346]","[-0.203, -0.347]","[0.306, 0.255]","[-0.377, 0.138]","[0.066, -0.395]","[0.07, 0.393]","[-0.378, -0.136]","[0.304, -0.26]",,12.107210260015563,15.924007460009307,6.408183160005137,"[-0.3537037037037037, 0.48055555555555557, 0.2796296296296296]","[-0.0824074074074074, 0.024074074074074074, 0.25925925925925924]","[1, 1, 1]","[0, 0, 0]","[0, 0, 0]","[6.402392000003601, 12.102044600003865, 15.918560700010858]",0.004762060008943081,15.9232531600137,['A1'],['B1'],['C2'],['yellow'],['salmon'],['blue'],575.6651369000028,None,10.0,2.4475060000113444,575.6651369000028,None,578.2153413000051,None,1.0,6.681039199989755,584.8819030000013,None,3.0,5.448236399999587,590.4150655999983,None,7.0,3.5818270000017947,<function functionImportanceB at 0x0000023EE4596488>,<function functionImportanceA at 0x0000023E87816950>,<function functionImportanceC at 0x0000023E803749D8>,,,0.0,3.2147163999907207,3.0,5.448236399999587,6.0,4.280941200006055,<function functiondiffA at 0x0000023E87816B70>,<function functiondiffB at 0x0000023E87816C80>,<function functiondiffC at 0x0000023EE3751A60>,,,,,559.2637630999961,601.4482854999951,None,593.9150054999918,None,598.214997300005,None,006,001,2022_Jun_14_1018,2leo,2021.2.3,59.978683572395056,
3,4,Plan a game night at your place,Stimuli/4A1.jpg,Stimuli/4A2.jpg,Stimuli/4A3.jpg,Stimuli/4B1.jpg,Stimuli/4B2.jpg,Stimuli/4B3.jpg,Stimuli/4C1.jpg,Stimuli/4C2.jpg,Stimuli/4C3.jpg,,,,,0,5,5,4,,,,,,,,604.2647765000002,None,605.264580899995,None,611.2647361999989,None,"[0.306, 0.255]","[-0.377, 0.138]","[0.066, -0.395]","[0.07, 0.393]","[-0.378, -0.136]","[0.304, -0.26]","[0.399, -0.003]","[-0.2, 0.346]","[-0.203, -0.347]",,8.139663420020952,4.872998420018121,11.706897820011363,"[0.26296296296296295, 0.2388888888888889, -0.18888888888888888]","[-0.2, 0.23055555555555557, 0.29907407407407405]","[1, 1, 1]","[0, 0, 0]","[0, 0, 0]","[4.856327799992869, 8.12346339999931, 11.690006099990569]",0.015794120015925728,11.705367720016511,['A1'],['B3'],['C2'],['yellow'],['salmon'],['blue'],626.847391599993,None,10.0,3.3295919000083813,626.847391599993,None,640.6641084000003,None,2.0,3.4806014000059804,637.1378347999998,None,10.0,4.582149399997434,631.5473803999921,None,7.0,5.831369100007578,<function functionImportanceC at 0x0000023E80374378>,<function functionImportanceA at 0x0000023E87816E18>,<function functionImportanceB at 0x0000023E80374268>,,,0.0,4.031080700005987,4.0,4.582149399997434,0.0,3.747761899998295,<function functiondiffA at 0x0000023E87816488>,<function functiondiffC at 0x0000023E803742F0>,<function functiondiffB at 0x0000023E87816EA0>,,,,,614.6920232999983,648.3136274999997,None,644.4970537000045,None,651.7967960999958,None,006,001,2022_Jun_14_1018,2leo,2021.2.3,59.978683572395056,
3,15,Plan your own Pasta for lunch,Stimuli/15A1.jpg,Stimuli/15A2.jpg,Stimuli/15A3.jpg,Stimuli/15B1.jpg,Stimuli/15B2.jpg,Stimuli/15B3.jpg,Stimuli/15C1.jpg,Stimuli/15C2.jpg,Stimuli/15C3.jpg,,,,,0,6,6,15,,,,,,,,655.346601600002,None,656.3466386999935,None,662.346597900003,None,"[-0.378, -0.136]","[0.07, 0.393]","[0.304, -0.26]","[-0.377, 0.138]","[0.306, 0.255]","[0.066, -0.395]","[-0.2, 0.346]","[0.399, -0.003]","[-0.203, -0.347]",,5.155099640003755,10.188570940008503,13.772116539999843,"[0.07407407407407407, 0.2935185185185185, -0.2101851851851852]","[0.387037037037037, 0.2361111111111111, -0.35]","[1, 1, 1]","[0, 0, 0]","[0, 0, 0]","[5.138661099990713, 10.171875999993063, 13.755063999997219]",0.015912040005787276,13.770885240010102,['A2'],['B2'],['C3'],['blue'],['yellow'],['salmon'],678.5459362999973,None,7.0,2.496919999990496,678.5459362999973,None,681.0961021999974,None,6.0,6.531046499992954,690.7791034999973,None,8.0,3.6151021999976365,688.4155942999932,None,10.0,2.998191799997585,<function functionImportanceB at 0x0000023E80374C80>,<function functionImportanceC at 0x0000023E80374BF8>,<function functionImportanceA at 0x0000023E80374F28>,,,2.0,3.2309378999925684,0.0,3.6151021999976365,9.0,2.2312979999987874,<function functiondiffB at 0x0000023EE3751BF8>,<function functiondiffC at 0x0000023E80374D90>,<function functiondiffA at 0x0000023EE3751E18>,,,,,664.3219314000016,697.6790332999954,None,701.2464923999942,None,694.2791258999932,None,006,001,2022_Jun_14_1018,2leo,2021.2.3,59.978683572395056,
3,7,Plan your Sunday breakfast ,Stimuli/7A1.jpg,Stimuli/7A2.jpg,Stimuli/7A3.jpg,Stimuli/7B1.jpg,Stimuli/7B2.jpg,Stimuli/7B3.jpg,Stimuli/7C1.jpg,Stimuli/7C2.jpg,Stimuli/7C3.jpg,,,,,0,7,7,7,,,,,,,,702.9954921000026,None,703.9955004999938,None,709.9953076999955,None,"[-0.378, -0.136]","[0.07, 0.393]","[0.304, -0.26]","[-0.2, 0.346]","[0.399, -0.003]","[-0.203, -0.347]","[-0.377, 0.138]","[0.306, 0.255]","[0.066, -0.395]",,8.585805020018597,15.985943520019646,10.869678420029231,"[0.03796296296296296, 0.2574074074074074, -0.15462962962962962]","[0.3472222222222222, 0.25277777777777777, -0.3175925925925926]","[1, 1, 1]","[0, 0, 0]","[0, 0, 0]","[8.574084099993343, 10.857453399992664, 15.973914300004253]",0.011154520019772463,15.984866420025355,['A2'],['B3'],['C2'],['salmon'],['yellow'],['blue'],732.4777257999958,None,9.0,1.6130673000006936,732.4777257999958,None,736.077906999999,None,10.0,6.030886599997757,741.9608234000043,None,7.0,4.6149895999988075,746.0610645999986,None,0.0,3.8982654999999795,<function functionImportanceB at 0x0000023E80374A60>,<function functionImportanceA at 0x0000023E80374048>,<function functionImportanceC at 0x0000023E80374D08>,,,10.0,3.230928999997559,-0.0,4.6149895999988075,7.0,2.7983281999913743,<function functiondiffC at 0x0000023E87816D08>,<function functiondiffB at 0x0000023E80374950>,<function functiondiffA at 0x0000023EE45960D0>,,,,,716.0391570999927,749.0943120000011,None,756.4030686000042,None,753.294250299994,None,006,001,2022_Jun_14_1018,2leo,2021.2.3,59.978683572395056,
3,16,Plan a delicious cake for the birthday of a friend,Stimuli/16A1.jpg,Stimuli/16A2.jpg,Stimuli/16A3.jpg,Stimuli/16B1.jpg,Stimuli/16B2.jpg,Stimuli/16B3.jpg,Stimuli/16C1.jpg,Stimuli/16C2.jpg,Stimuli/16C3.jpg,,,,,0,8,8,16,,,,,,,,758.1939705999976,None,759.1939599000034,None,765.193619800004,None,"[0.304, -0.26]","[0.07, 0.393]","[-0.378, -0.136]","[0.066, -0.395]","[0.306, 0.255]","[-0.377, 0.138]","[-0.203, -0.347]","[0.399, -0.003]","[-0.2, 0.346]",,15.242509680014336,8.276229680006509,21.65932308000629,"[-0.3490740740740741, 0.03888888888888889, 0.4305555555555556]","[0.11388888888888889, 0.35462962962962963, -0.019444444444444445]","[1, 1, 1]","[0, 0, 0]","[0, 0, 0]","[8.268104800008587, 15.234803800005466, 21.65109700000903]",0.007177980005508289,21.658086480005295,['A2'],['B3'],['C2'],['salmon'],['yellow'],['blue'],788.8429766000045,None,7.0,2.2637454999930924,788.8429766000045,None,791.4596979000053,None,-0.0,5.064590100009809,796.310249999995,None,10.0,2.7151827000052435,799.1259946999926,None,2.0,2.39867840000079,<function functionImportanceB at 0x0000023E87816400>,<function functionImportanceA at 0x0000023E87816510>,<function functionImportanceC at 0x0000023E80374488>,,,7.0,4.564433300009114,7.0,2.7151827000052435,10.0,3.348190300006536,<function functiondiffB at 0x0000023E803746A8>,<function functiondiffC at 0x0000023E80374158>,<function functiondiffA at 0x0000023E87816BF8>,,,,,766.7242947999912,805.9765834999998,None,810.4757798999926,None,801.4262572000007,None,006,001,2022_Jun_14_1018,2leo,2021.2.3,59.978683572395056,
3,28,Plan a one-week camping trip in Spain,Stimuli/28A1.jpg,Stimuli/28A2.jpg,Stimuli/28A3.jpg,Stimuli/28B1.jpg,Stimuli/28B2.jpg,Stimuli/28B3.jpg,Stimuli/28C1.jpg,Stimuli/28C2.jpg,Stimuli/28C3.jpg,,,,,0,9,9,28,,,,,,,,813.3423542999953,None,814.3426818000007,None,820.3423488999979,None,"[0.304, -0.26]","[-0.378, -0.136]","[0.07, 0.393]","[0.066, -0.395]","[-0.377, 0.138]","[0.306, 0.255]","[-0.203, -0.347]","[-0.2, 0.346]","[0.399, -0.003]",,14.263797120001982,17.53098661999684,10.131961620005313,"[0.35462962962962963, 0.29907407407407405, 0.2962962962962963]","[-0.021296296296296296, -0.2722222222222222, 0.23148148148148148]","[1, 1, 1]","[0, 0, 0]","[0, 0, 0]","[10.123047500004759, 14.255552800008445, 17.522352400003]",0.007794119999743998,17.529818020004313,['A1'],['B3'],['C3'],['blue'],['salmon'],['yellow'],839.491714799995,None,7.0,2.363597599993227,839.491714799995,None,848.8082046999916,None,2.0,3.381421300000511,841.9251744999929,None,6.0,6.864627500006463,852.2080827000027,None,9.0,2.848680199997034,<function functionImportanceA at 0x0000023E87816D90>,<function functionImportanceB at 0x0000023EE45961E0>,<function functionImportanceC at 0x0000023E803748C8>,,,4.0,2.7148913999990327,9.0,6.864627500006463,2.0,4.4313812000036705,<function functiondiffA at 0x0000023E80374AE8>,<function functiondiffB at 0x0000023E803741E0>,<function functiondiffC at 0x0000023E806F88C8>,,,,,821.4847807000042,862.224516000002,None,855.0414351999934,None,859.4911584999936,None,006,001,2022_Jun_14_1018,2leo,2021.2.3,59.978683572395056,
3,20,Plan a tea party with your friends,Stimuli/20A1.jpg,Stimuli/20A2.jpg,Stimuli/20A3.jpg,Stimuli/20B1.jpg,Stimuli/20B2.jpg,Stimuli/20B3.jpg,Stimuli/20C1.jpg,Stimuli/20C2.jpg,Stimuli/20C3.jpg,,,,,0,10,10,20,,,,,,,,863.9244174999913,None,864.924397499999,None,870.9246210999991,None,"[0.399, -0.003]","[-0.203, -0.347]","[-0.2, 0.346]","[0.07, 0.393]","[0.304, -0.26]","[-0.378, -0.136]","[0.306, 0.255]","[0.066, -0.395]","[-0.377, 0.138]",,4.751096020001569,8.534379820004688,11.018335020009545,"[0.4444444444444444, 0.06666666666666667, 0.3111111111111111]","[0.001851851851851852, 0.39166666666666666, 0.2564814814814815]","[1, 1, 1]","[0, 0, 0]","[0, 0, 0]","[4.7365068000071915, 8.519477299996652, 11.00327030000335]",0.014144320011837408,11.01690492000489,['A1'],['B1'],['C1'],['yellow'],['blue'],['salmon'],885.9904340999929,None,10.0,2.397366699995473,885.9904340999929,None,897.7900397999911,None,3.0,6.648255200008862,893.0403418999922,None,7.0,2.3152071999938926,888.4404049000004,None,10.0,4.5477987000049325,<function functionImportanceC at 0x0000023E806F8158>,<function functionImportanceA at 0x0000023E80374730>,<function functionImportanceB at 0x0000023E806F89D8>,,,4.0,6.114298899992718,7.0,2.3152071999938926,0.0,2.248556799997459,<function functiondiffB at 0x0000023E806F8AE8>,<function functiondiffC at 0x0000023E806F8620>,<function functiondiffA at 0x0000023E806F8A60>,,,,,874.5201190999942,908.1234464000008,None,912.0566763999959,None,902.5455599999987,None,006,001,2022_Jun_14_1018,2leo,2021.2.3,59.978683572395056,
3,36,Plan your shopping for new clothing,Stimuli/36A1.jpg,Stimuli/36A2.jpg,Stimuli/36A3.jpg,Stimuli/36B1.jpg,Stimuli/36B2.jpg,Stimuli/36B3.jpg,Stimuli/36C1.jpg,Stimuli/36C2.jpg,Stimuli/36C3.jpg,,,,,0,11,11,36,,,,,,,,913.8397353000037,None,914.839861600005,None,920.8398435999989,None,"[0.304, -0.26]","[-0.378, -0.136]","[0.07, 0.393]","[-0.203, -0.347]","[-0.2, 0.346]","[0.399, -0.003]","[0.066, -0.395]","[-0.377, 0.138]","[0.306, 0.255]",,11.863350700004958,18.16343909999705,5.697366599997622,"[-0.3287037037037037, 0.2861111111111111, 0.4638888888888889]","[0.12222222222222222, -0.24722222222222223, -0.001851851851851852]","[1, 1, 1]","[0, 0, 0]","[0, 0, 0]","[5.68041460000677, 11.847049700008938, 18.14670070000284]",0.015889700007392094,18.162431400007335,['A1'],['B3'],['C2'],['yellow'],['blue'],['salmon'],940.6224173999944,None,9.0,2.280465899995761,940.6224173999944,None,949.9390079000004,None,8.0,2.4485650999995414,947.1057136000018,None,2.0,2.765242199995555,942.9724777999945,None,1.0,4.114105800006655,<function functionImportanceC at 0x0000023E806F8D08>,<function functionImportanceA at 0x0000023E806F8BF8>,<function functionImportanceB at 0x0000023E806F8048>,,,7.0,4.162372899998445,2.0,2.765242199995555,1.0,3.5479002999927616,<function functiondiffB at 0x0000023E80374620>,<function functiondiffC at 0x0000023E806F81E0>,<function functiondiffA at 0x0000023E80374E18>,,,,,921.9910200000013,956.4887625999982,None,959.2553845999937,None,952.3221487999981,None,006,001,2022_Jun_14_1018,2leo,2021.2.3,59.978683572395056,
3,8,Plan the interior of your living-room ,Stimuli/8A1.jpg,Stimuli/8A2.jpg,Stimuli/8A3.jpg,Stimuli/8B1.jpg,Stimuli/8B2.jpg,Stimuli/8B3.jpg,Stimuli/8C1.jpg,Stimuli/8C2.jpg,Stimuli/8C3.jpg,,,,,0,12,12,8,,,,,,,,962.3218143999984,None,963.3217743999994,None,969.3219520999992,None,"[0.07, 0.393]","[0.304, -0.26]","[-0.378, -0.136]","[0.306, 0.255]","[0.066, -0.395]","[-0.377, 0.138]","[0.399, -0.003]","[-0.203, -0.347]","[-0.2, 0.346]",,4.607794580020709,8.024488680021022,12.559879880020162,"[0.05092592592592592, 0.3074074074074074, 0.3787037037037037]","[0.3416666666666667, 0.2111111111111111, 0.05555555555555555]","[1, 1, 1]","[0, 0, 0]","[0, 0, 0]","[4.600085400001262, 8.016511399997398, 12.551633900002344]",0.0072571800264995545,12.556941780028865,['A1'],['B1'],['C1'],['salmon'],['yellow'],['blue'],987.1712010999909,None,8.0,2.3279532000015024,987.1712010999909,None,1003.756060899992,None,6.0,5.065144299995154,999.0711440000014,None,9.0,2.9152047999959905,991.4876098999957,None,8.0,9.51441019999038,<function functionImportanceC at 0x0000023E80374B70>,<function functionImportanceA at 0x0000023E806F8C80>,<function functionImportanceB at 0x0000023E80374840>,,,1.0,3.747467000008328,7.0,2.9152047999959905,2.0,4.664024600002449,<function functiondiffA at 0x0000023E806F8F28>,<function functiondiffB at 0x0000023E806F82F0>,<function functiondiffC at 0x0000023E80374400>,,,,,974.1409831999918,1016.0873627999972,None,1007.070896899997,None,1012.2872552000044,None,006,001,2022_Jun_14_1018,2leo,2021.2.3,59.978683572395056,
3,21,Plan your sandwich for lunch,Stimuli/21A1.jpg,Stimuli/21A2.jpg,Stimuli/21A3.jpg,Stimuli/21B1.jpg,Stimuli/21B2.jpg,Stimuli/21B3.jpg,Stimuli/21C1.jpg,Stimuli/21C2.jpg,Stimuli/21C3.jpg,,,,,0,13,13,21,,,,,,,,1017.5536668999994,None,1018.5535806999978,None,1024.5536887000053,None,"[0.066, -0.395]","[0.306, 0.255]","[-0.377, 0.138]","[-0.203, -0.347]","[0.399, -0.003]","[-0.2, 0.346]","[0.304, -0.26]","[0.07, 0.393]","[-0.378, -0.136]",,8.167213659980916,10.75159775998327,3.5343341599800624,"[0.06574074074074074, -0.42962962962962964, -0.24444444444444444]","[0.40925925925925927, 0.11944444444444445, 0.27314814814814814]","[1, 1, 1]","[0, 0, 0]","[0, 0, 0]","[3.52374289999716, 8.157001200001105, 10.741197800001828]",0.009519459985313006,10.750011759984773,['A3'],['B3'],['C2'],['yellow'],['salmon'],['blue'],1036.969707199998,None,10.0,2.2799251999967964,1036.969707199998,None,1046.6864264000033,None,1.0,2.248575500008883,1044.2364337000035,None,9.0,2.3987024999951245,1039.3866007000033,None,9.0,4.897908600003575,<function functionImportanceC at 0x0000023E80ABB048>,<function functionImportanceA at 0x0000023E806F8B70>,<function functionImportanceB at 0x0000023E803740D0>,,,-0.0,2.5978036999877077,8.0,2.3987024999951245,3.0,5.197528800010332,<function functiondiffA at 0x0000023E806F8730>,<function functiondiffB at 0x0000023E806F8D90>,<function functiondiffC at 0x0000023E806F8510>,,,,,1025.7433184999973,1056.7195232999948,None,1048.886380099997,None,1054.1029486000043,None,006,001,2022_Jun_14_1018,2leo,2021.2.3,59.978683572395056,
3,32,Plan how you want to relax after a workday,Stimuli/32A1.jpg,Stimuli/32A2.jpg,Stimuli/32A3.jpg,Stimuli/32B1.jpg,Stimuli/32B2.jpg,Stimuli/32B3.jpg,Stimuli/32C1.jpg,Stimuli/32C2.jpg,Stimuli/32C3.jpg,,,,,0,14,14,32,,,,,,,,1058.085933800001,None,1059.0859525999986,None,1065.0860657000012,None,"[-0.2, 0.346]","[-0.203, -0.347]","[0.399, -0.003]","[-0.377, 0.138]","[0.066, -0.395]","[0.306, 0.255]","[-0.378, -0.136]","[0.304, -0.26]","[0.07, 0.393]",,16.08154350001132,13.648629200004507,6.948886200014385,"[0.3175925925925926, -0.33611111111111114, 0.45740740740740743]","[-0.2675925925925926, 0.1175925925925926, -0.007407407407407408]","[1, 1, 1]","[0, 0, 0]","[0, 0, 0]","[6.946317199995974, 13.646451399996295, 16.079450000004726]",0.0014974000077927485,16.080754700000398,['A3'],['B1'],['C2'],['yellow'],['salmon'],['blue'],1084.668590500005,None,8.0,2.129934399999911,1084.668590500005,None,1087.6353587000049,None,8.0,4.16443160000199,1094.8022237999976,None,2.0,4.081588800007012,1091.0359386999917,None,10.0,2.632161500005168,<function functionImportanceB at 0x0000023E80ABB268>,<function functionImportanceC at 0x0000023E80ABBAE8>,<function functionImportanceA at 0x0000023E80ABBB70>,,,10.0,2.7811757999879774,9.0,4.081588800007012,0.0,3.964349800007767,<function functiondiffA at 0x0000023E806F8598>,<function functiondiffC at 0x0000023E80ABBA60>,<function functiondiffB at 0x0000023E806F8840>,,,,,1068.120556599999,1101.7350446999917,None,1098.118469699999,None,1104.535004099991,None,006,001,2022_Jun_14_1018,2leo,2021.2.3,59.978683572395056,
3,34,Plan what car you want to buy,Stimuli/34A1.jpg,Stimuli/34A2.jpg,Stimuli/34A3.jpg,Stimuli/34B1.jpg,Stimuli/34B2.jpg,Stimuli/34B3.jpg,Stimuli/34C1.jpg,Stimuli/34C2.jpg,Stimuli/34C3.jpg,,,,,0,15,15,34,,,,,,,,1117.8509905999963,None,1118.8511455999978,None,1124.851073999991,None,"[0.304, -0.26]","[-0.378, -0.136]","[0.07, 0.393]","[-0.203, -0.347]","[-0.2, 0.346]","[0.399, -0.003]","[0.066, -0.395]","[-0.377, 0.138]","[0.306, 0.255]",,4.268651060003322,10.968832960003056,8.602822960005142,"[-0.34074074074074073, 0.07592592592592592, -0.21944444444444444]","[-0.09722222222222222, -0.40925925925925927, -0.3787037037037037]","[1, 1, 1]","[0, 0, 0]","[0, 0, 0]","[4.264181899998221, 8.59793649999483, 10.96419590000005]",0.003958860004786402,10.967971360005322,['A2'],['B1'],['C1'],['yellow'],['blue'],['salmon'],1139.4338745999994,None,10.0,1.9637244999903487,1139.4338745999994,None,1142.4673780000012,None,1.0,4.68105579999974,1147.2520999999979,None,10.0,3.5485637999954633,1149.7337489999918,None,7.0,1.9984289999993052,<function functionImportanceB at 0x0000023E80ABB378>,<function functionImportanceA at 0x0000023E80ABBF28>,<function functionImportanceC at 0x0000023E80ABB488>,,,4.0,3.64786230000027,1.0,3.5485637999954633,0.0,3.047906299994793,<function functiondiffC at 0x0000023E80ABBBF8>,<function functiondiffA at 0x0000023E806F80D0>,<function functiondiffB at 0x0000023E806F8E18>,,,,,1128.0029355000006,1151.7003390000027,None,1156.5002894999925,None,1159.4667293999955,None,006,001,2022_Jun_14_1018,2leo,2021.2.3,59.978683572395056,
3,29,Plan a day in the mountains ,Stimuli/29A1.jpg,Stimuli/29A2.jpg,Stimuli/29A3.jpg,Stimuli/29B1.jpg,Stimuli/29B2.jpg,Stimuli/29B3.jpg,Stimuli/29C1.jpg,Stimuli/29C2.jpg,Stimuli/29C3.jpg,,,,,0,16,16,29,,,,,,,,1162.383166300002,None,1163.3833146999968,None,1169.383121699997,None,"[-0.2, 0.346]","[0.399, -0.003]","[-0.203, -0.347]","[-0.377, 0.138]","[0.306, 0.255]","[0.066, -0.395]","[-0.378, -0.136]","[0.07, 0.393]","[0.304, -0.26]",,7.614811940002255,11.215481040009763,5.149178140010918,"[-0.3962962962962963, -0.17314814814814813, 0.3638888888888889]","[-0.12962962962962962, 0.287962962962963, 0.25092592592592594]","[1, 1, 1]","[0, 0, 0]","[0, 0, 0]","[5.139303199990536, 7.6055980999954045, 11.205862999995588]",0.008792540000285953,11.214614140000776,['A1'],['B2'],['C1'],['salmon'],['yellow'],['blue'],1182.2827408000012,None,10.0,2.5635324000031687,1182.2827408000012,None,1192.9990823999979,None,10.0,1.7154672000033315,1189.4659203000047,None,3.0,3.5817124000022886,1184.9162292999972,None,2.0,4.4475190000084694,<function functionImportanceC at 0x0000023E80ABB730>,<function functionImportanceA at 0x0000023E80ABB510>,<function functionImportanceB at 0x0000023E80ABB598>,,,-0.0,2.7143961999972817,3.0,3.5817124000022886,1.0,3.08137600000191,<function functiondiffC at 0x0000023E80ABB6A8>,<function functiondiffB at 0x0000023E80ABBC80>,<function functiondiffA at 0x0000023E80ABB400>,,,,,1170.5912602000026,1194.6658503999934,None,1201.0491167,None,1198.2990925999911,None,006,001,2022_Jun_14_1018,2leo,2021.2.3,59.978683572395056,
3,18,Plan your Saturday night ,Stimuli/18A1.jpg,Stimuli/18A2.jpg,Stimuli/18A3.jpg,Stimuli/18B1.jpg,Stimuli/18B2.jpg,Stimuli/18B3.jpg,Stimuli/18C1.jpg,Stimuli/18C2.jpg,Stimuli/18C3.jpg,,,,,0,17,17,18,,,,,,,,1203.6320907000045,None,1204.6321951999998,None,1210.6321245,None,"[0.399, -0.003]","[-0.203, -0.347]","[-0.2, 0.346]","[0.306, 0.255]","[0.066, -0.395]","[-0.377, 0.138]","[0.07, 0.393]","[0.304, -0.26]","[-0.378, -0.136]",,8.172695440007374,3.3565480400138767,9.389663540016045,"[0.33425925925925926, -0.16018518518518518, 0.03981481481481482]","[0.2675925925925926, -0.2824074074074074, 0.3787037037037037]","[1, 1, 1]","[0, 0, 0]","[0, 0, 0]","[3.343793199994252, 8.160126999995555, 9.376662099995883]",0.01207104000786785,9.38867294001102,['A2'],['B1'],['C1'],['salmon'],['yellow'],['blue'],1221.614983499996,None,10.0,2.097098600002937,1221.614983499996,None,1227.7984949999955,None,2.0,2.981762000010349,1223.7814641000004,None,1.0,4.031468899993342,1230.832152899995,None,7.0,2.264894699997967,<function functionImportanceA at 0x0000023E80ABB7B8>,<function functionImportanceB at 0x0000023E80ECF048>,<function functionImportanceC at 0x0000023E80ECF158>,,,1.0,4.1808751999924425,1.0,4.031468899993342,8.0,1.8480912999948487,<function functiondiffB at 0x0000023E80ABB950>,<function functiondiffC at 0x0000023E80ECF620>,<function functiondiffA at 0x0000023E806F8378>,,,,,1211.753954300002,1237.2813710000046,None,1239.7146784999932,None,1233.0649585999927,None,006,001,2022_Jun_14_1018,2leo,2021.2.3,59.978683572395056,
3,0,Plan a barbecue,Stimuli/0A1.jpg,Stimuli/0A2.jpg,Stimuli/0A3.jpg,Stimuli/0B1.jpg,Stimuli/0B2.jpg,Stimuli/0B3.jpg,Stimuli/0C1.jpg,Stimuli/0C2.jpg,Stimuli/0C3.jpg,,,,,0,18,18,0,,,,,,,,1241.0811354000034,None,1242.0811261999916,None,1248.0811732000002,None,"[0.304, -0.26]","[-0.378, -0.136]","[0.07, 0.393]","[-0.203, -0.347]","[-0.2, 0.346]","[0.399, -0.003]","[0.066, -0.395]","[-0.377, 0.138]","[0.306, 0.255]",,17.920051460008835,14.003203960004612,4.504952160001267,"[0.03796296296296296, 0.35462962962962963, -0.38425925925925924]","[-0.34444444444444444, 0.025, -0.0962962962962963]","[1, 1, 1]","[0, 0, 0]","[0, 0, 0]","[4.5031712999916635, 14.001503499996033, 17.9187130999926]",0.0008455600036541,17.918956560009974,['A2'],['B3'],['C1'],['salmon'],['blue'],['yellow'],1268.9470400999999,None,9.0,2.5797644999984186,1268.9470400999999,None,1271.5972290999925,None,10.0,3.7808963999996195,1276.731436400005,None,10.0,6.3480343999981415,1281.7469868000044,None,3.0,2.298602299997583,<function functionImportanceB at 0x0000023E80ECF488>,<function functionImportanceA at 0x0000023E80ECF2F0>,<function functionImportanceC at 0x0000023E80ECF510>,,,10.0,2.54773030000797,2.0,6.3480343999981415,8.0,2.1647720000037225,<function functiondiffB at 0x0000023E806F8950>,<function functiondiffA at 0x0000023E80ABBD90>,<function functiondiffC at 0x0000023E80ECF840>,,,,,1250.5580708000052,1288.796689499999,None,1286.9967077000038,None,1284.0302327999962,None,006,001,2022_Jun_14_1018,2leo,2021.2.3,59.978683572395056,
3,12,Plan the ingredients to mix yourself a cocktail,Stimuli/12A1.jpg,Stimuli/12A2.jpg,Stimuli/12A3.jpg,Stimuli/12B1.jpg,Stimuli/12B2.jpg,Stimuli/12B3.jpg,Stimuli/12C1.jpg,Stimuli/12C2.jpg,Stimuli/12C3.jpg,,,,,0,19,19,12,,,,,,,,1290.529589800004,None,1291.5298401000036,None,1297.5299052999908,None,"[0.07, 0.393]","[0.304, -0.26]","[-0.378, -0.136]","[0.399, -0.003]","[-0.203, -0.347]","[-0.2, 0.346]","[0.306, 0.255]","[0.066, -0.395]","[-0.377, 0.138]",,4.564680680006859,12.250700080010574,7.78182458000083,"[0.05185185185185185, -0.41388888888888886, -0.22777777777777777]","[0.3851851851851852, 0.13518518518518519, -0.37592592592592594]","[1, 1, 1]","[0, 0, 0]","[0, 0, 0]","[4.547807199996896, 7.764224500002456, 12.231739599999855]",0.016419179999502376,12.247753080009716,['A1'],['B2'],['C3'],['yellow'],['salmon'],['blue'],1311.4459631999925,None,10.0,2.160686599992914,1311.4459631999925,None,1317.9125817000022,None,0.0,3.164945800002897,1313.7127142999962,None,3.0,4.247444900000119,1321.1125461000047,None,7.0,2.6832665000110865,<function functionImportanceA at 0x0000023E80ECFAE8>,<function functionImportanceB at 0x0000023E80ECFB70>,<function functionImportanceC at 0x0000023E80ECF950>,,,3.0,4.597816100009368,2.0,4.247444900000119,1.0,2.881195000009029,<function functiondiffB at 0x0000023E80ECFE18>,<function functiondiffA at 0x0000023E80ECF378>,<function functiondiffC at 0x0000023E806F86A8>,,,,,1298.6967045999918,1331.2957066999952,None,1328.3957689999952,None,1323.779217599993,None,006,001,2022_Jun_14_1018,2leo,2021.2.3,59.978683572395056,
3,41,Plan how you want to have dinner tonight ,Stimuli/41A1.jpg,Stimuli/41A2.jpg,Stimuli/41A3.jpg,Stimuli/41B1.jpg,Stimuli/41B2.jpg,Stimuli/41B3.jpg,Stimuli/41C1.jpg,Stimuli/41C2.jpg,Stimuli/41C3.jpg,,,,,0,20,20,41,,,,,,,,1333.828626699993,None,1334.828908399999,None,1340.8287960000016,None,"[-0.203, -0.347]","[0.399, -0.003]","[-0.2, 0.346]","[0.066, -0.395]","[0.306, 0.255]","[-0.377, 0.138]","[0.304, -0.26]","[0.07, 0.393]","[-0.378, -0.136]",,12.060898359995917,15.112664859989309,8.844952359999297,"[0.28888888888888886, -0.13796296296296295]","[-0.2611111111111111, -0.31203703703703706]","[1, 1]","[0, 0]","[0, 0]","[8.828191499997047, 12.044677500001853]",0.015795259998412803,15.110392859991407,['A1'],['B1'],['C1'],['yellow'],['blue'],['salmon'],1357.7613081000018,None,10.0,1.94546519999858,1357.7613081000018,None,1367.061217800001,None,2.0,2.7977170000085607,1364.7779916,None,1.0,2.2817266000056406,1359.9448408000026,None,8.0,4.964812600010191,<function functionImportanceC at 0x0000023E80ECFBF8>,<function functionImportanceA at 0x0000023E80ECF268>,<function functionImportanceB at 0x0000023E80ECFF28>,,,1.0,3.314241400003084,7.0,2.2817266000056406,0.0,2.1312236999947345,<function functiondiffC at 0x0000023E80ECF730>,<function functiondiffB at 0x0000023E80ABB8C8>,<function functiondiffA at 0x0000023E80ABB1E0>,,,,,1342.1823059000017,1369.8780785999988,None,1376.6278215999919,None,1373.294608199998,None,006,001,2022_Jun_14_1018,2leo,2021.2.3,59.978683572395056,
3,37,Plan your cleaning routine ,Stimuli/37A1.jpg,Stimuli/37A2.jpg,Stimuli/37A3.jpg,Stimuli/37B1.jpg,Stimuli/37B2.jpg,Stimuli/37B3.jpg,Stimuli/37C1.jpg,Stimuli/37C2.jpg,Stimuli/37C3.jpg,,,,,0,21,21,37,,,,,,,,1378.277532299995,None,1379.2775698000041,None,1385.2775199000025,None,"[0.304, -0.26]","[0.07, 0.393]","[-0.378, -0.136]","[-0.203, -0.347]","[0.399, -0.003]","[-0.2, 0.346]","[0.066, -0.395]","[0.306, 0.255]","[-0.377, 0.138]",,3.4974664199980907,13.58104531999561,6.981781719994615,"[0.016666666666666666, 0.287962962962963, -0.20462962962962963]","[0.37962962962962965, 0.2212962962962963, 0.29907407407407405]","[1, 1, 1]","[0, 0, 0]","[0, 0, 0]","[3.480811499990523, 6.964652800001204, 13.564014699994004]",0.01610731999971904,13.580098719990929,['A2'],['B3'],['C2'],['salmon'],['yellow'],['blue'],1400.460289499999,None,9.0,1.9306410999997752,1400.460289499999,None,1402.4437284000014,None,-0.0,4.214062600003672,1408.9937134999927,None,9.0,2.831760699991719,1406.6938459999947,None,9.0,2.281677499995567,<function functionImportanceB at 0x0000023E80ABB2F0>,<function functionImportanceC at 0x0000023E80ECF8C8>,<function functionImportanceA at 0x0000023E80ABBD08>,,,6.0,2.5646296000049915,1.0,2.831760699991719,0.0,1.898175700000138,<function functiondiffC at 0x0000023E80ECF400>,<function functiondiffB at 0x0000023E80ECFD08>,<function functiondiffA at 0x0000023E80ECF0D0>,,,,,1386.4112288000033,1411.8099918999942,None,1418.7101350000012,None,1416.1268225999956,None,006,001,2022_Jun_14_1018,2leo,2021.2.3,59.978683572395056,
3,30,Plan your sport work out for tomorrow,Stimuli/30A1.jpg,Stimuli/30A2.jpg,Stimuli/30A3.jpg,Stimuli/30B1.jpg,Stimuli/30B2.jpg,Stimuli/30B3.jpg,Stimuli/30C1.jpg,Stimuli/30C2.jpg,Stimuli/30C3.jpg,,,,,0,22,22,30,,,,,,,,1420.1261229999945,None,1421.1264628999925,None,1427.126397,None,"[0.306, 0.255]","[0.066, -0.395]","[-0.377, 0.138]","[0.07, 0.393]","[0.304, -0.26]","[-0.378, -0.136]","[0.399, -0.003]","[-0.203, -0.347]","[-0.2, 0.346]",,7.455995459997212,3.7729884599975776,11.656715460005216,"[0.037037037037037035, 0.2722222222222222, -0.1814814814814815]","[0.35648148148148145, 0.2574074074074074, 0.30833333333333335]","[1, 1, 1]","[0, 0, 0]","[0, 0, 0]","[3.7597869000019273, 7.44315039999492, 11.643097799998941]",0.01240566000342369,11.655192060003174,['A1'],['B1'],['C3'],['salmon'],['blue'],['yellow'],1440.4423811000015,None,10.0,1.930399100005161,1440.4423811000015,None,1442.4925280000025,None,10.0,3.7147505000029923,1448.7257668999955,None,10.0,2.198375100007979,1446.1758039999986,None,1.0,2.5316766000032658,<function functionImportanceB at 0x0000023E811B2488>,<function functionImportanceC at 0x0000023E811B2048>,<function functionImportanceA at 0x0000023E806F8400>,,,-0.0,3.0810746000061044,3.0,2.198375100007979,3.0,2.2312187000061385,<function functiondiffB at 0x0000023E80ECF598>,<function functiondiffC at 0x0000023E80ECF1E0>,<function functiondiffA at 0x0000023E80ECFA60>,,,,,1428.3134183999937,1454.0090632999927,None,1456.7090150000004,None,1450.9256851999962,None,006,001,2022_Jun_14_1018,2leo,2021.2.3,59.978683572395056,
3,31,Plan your order at a restaurant    ,Stimuli/31A1.jpg,Stimuli/31A2.jpg,Stimuli/31A3.jpg,Stimuli/31B1.jpg,Stimuli/31B2.jpg,Stimuli/31B3.jpg,Stimuli/31C1.jpg,Stimuli/31C2.jpg,Stimuli/31C3.jpg,,,,,0,23,23,31,,,,,,,,1458.4420994999964,None,1459.4421948999952,None,1465.4422655999952,None,"[0.399, -0.003]","[-0.2, 0.346]","[-0.203, -0.347]","[0.07, 0.393]","[-0.378, -0.136]","[0.304, -0.26]","[0.306, 0.255]","[-0.377, 0.138]","[0.066, -0.395]",,16.5024658000184,15.719829600013327,20.019945200008806,"[-0.40185185185185185, -0.22592592592592592, 0.04814814814814815]","[-0.11203703703703703, 0.29907407407407405, -0.41574074074074074]","[1, 1, 1]","[0, 0, 0]","[0, 0, 0]","[15.709200199999032, 16.492092700005742, 20.008996799995657]",0.009845700013102032,20.018521100020735,['A2'],['B2'],['C3'],['blue'],['salmon'],['yellow'],1488.5247030000028,None,10.0,1.4802631000056863,1488.5247030000028,None,1494.8745297999994,None,10.0,2.4317927999945823,1491.4748351000017,None,10.0,4.764666800008854,1497.341255499996,None,2.0,2.648213599997689,<function functionImportanceA at 0x0000023E80ABB840>,<function functionImportanceB at 0x0000023E80ECFD90>,<function functionImportanceC at 0x0000023E811B2268>,,,10.0,2.0478446000051918,1.0,4.764666800008854,10.0,2.614537500005099,<function functiondiffC at 0x0000023E806F8268>,<function functiondiffA at 0x0000023E803747B8>,<function functiondiffB at 0x0000023E806F8EA0>,,,,,1468.0487539000023,1499.9412551999994,None,1504.857712500001,None,1507.1410056000022,None,006,001,2022_Jun_14_1018,2leo,2021.2.3,59.978683572395056,
3,33,Plan the items to decorate your Christmas tree,Stimuli/33A1.jpg,Stimuli/33A2.jpg,Stimuli/33A3.jpg,Stimuli/33B1.jpg,Stimuli/33B2.jpg,Stimuli/33B3.jpg,Stimuli/33C1.jpg,Stimuli/33C2.jpg,Stimuli/33C3.jpg,,,,,0,24,24,33,,,,,,,,1508.7074003000016,None,1509.7074394999945,None,1515.7076034999918,None,"[-0.203, -0.347]","[-0.2, 0.346]","[0.399, -0.003]","[0.304, -0.26]","[-0.378, -0.136]","[0.07, 0.393]","[0.066, -0.395]","[-0.377, 0.138]","[0.306, 0.255]",,6.165668959991308,8.416963059993577,11.366185459992266,"[-0.15925925925925927, 0.2851851851851852, 0.13425925925925927]","[-0.31203703703703706, -0.24444444444444444, -0.36203703703703705]","[1, 1, 1]","[0, 0, 0]","[0, 0, 0]","[6.1538045999914175, 8.404846299992641, 11.353802099998575]",0.011437859997386113,11.36489445999905,['A1'],['B1'],['C1'],['salmon'],['blue'],['yellow'],1529.240213099998,None,10.0,2.3471143999922788,1529.240213099998,None,1537.0569501999998,None,2.0,2.281535200003418,1539.9414677000022,None,10.0,2.165169400002924,1531.6735558999935,None,0.0,5.397584699996514,<function functionImportanceC at 0x0000023E811B2620>,<function functionImportanceB at 0x0000023E811B2BF8>,<function functionImportanceA at 0x0000023E80ECF9D8>,,,3.0,2.4481544000009308,4.0,2.165169400002924,1.0,3.0813575999927707,<function functiondiffA at 0x0000023E80ECFC80>,<function functiondiffB at 0x0000023E806F87B8>,<function functiondiffC at 0x0000023E811B2510>,,,,,1517.4158725000016,1547.0900609999953,None,1541.6565374999918,None,1544.6255626999919,None,006,001,2022_Jun_14_1018,2leo,2021.2.3,59.978683572395056,
3,19,Plan how you want your garden to look like,Stimuli/19A1.jpg,Stimuli/19A2.jpg,Stimuli/19A3.jpg,Stimuli/19B1.jpg,Stimuli/19B2.jpg,Stimuli/19B3.jpg,Stimuli/19C1.jpg,Stimuli/19C2.jpg,Stimuli/19C3.jpg,,,,,0,25,25,19,,,,,,,,1549.572755000001,None,1550.5731196999986,None,1556.5731328999973,None,"[-0.2, 0.346]","[-0.203, -0.347]","[0.399, -0.003]","[-0.378, -0.136]","[0.304, -0.26]","[0.07, 0.393]","[-0.377, 0.138]","[0.066, -0.395]","[0.306, 0.255]",,4.461206680018222,10.577852380025433,14.728098080027848,"[-0.18333333333333332, 0.06759259259259259, -0.3888888888888889]","[-0.34074074074074073, 0.34629629629629627, 0.13333333333333333]","[1, 1, 1]","[0, 0, 0]","[0, 0, 0]","[4.449726300008479, 10.566029499997967, 14.716008500006865]",0.01097728002059739,14.72691368003143,['A2'],['B3'],['C1'],['salmon'],['blue'],['yellow'],1575.3890481999988,None,10.0,1.663875400001416,1575.3890481999988,None,1582.7769784999982,None,7.0,3.39857989999291,1585.122450499999,None,2.0,1.5984477000019979,1578.5224270000035,None,10.0,4.531116900005145,<function functionImportanceC at 0x0000023E811B28C8>,<function functionImportanceB at 0x0000023E811B2A60>,<function functionImportanceA at 0x0000023E811B2158>,,,7.0,3.8979782999958843,0.0,1.5984477000019979,4.0,3.1984533999930136,<function functiondiffC at 0x0000023E811B2598>,<function functiondiffB at 0x0000023E811B2840>,<function functiondiffA at 0x0000023E811B2400>,,,,,1560.2091515999928,1587.0388109999913,None,1594.5221133000014,None,1590.8555157999945,None,006,001,2022_Jun_14_1018,2leo,2021.2.3,59.978683572395056,
3,17,Plan a day in Barcelona with a friend who is new to the city,Stimuli/17A1.jpg,Stimuli/17A2.jpg,Stimuli/17A3.jpg,Stimuli/17B1.jpg,Stimuli/17B2.jpg,Stimuli/17B3.jpg,Stimuli/17C1.jpg,Stimuli/17C2.jpg,Stimuli/17C3.jpg,,,,,0,26,26,17,,,,,,,,1597.238432500002,None,1598.2385743999912,None,1604.2385028999997,None,"[0.306, 0.255]","[0.066, -0.395]","[-0.377, 0.138]","[0.07, 0.393]","[0.304, -0.26]","[-0.378, -0.136]","[0.399, -0.003]","[-0.203, -0.347]","[-0.2, 0.346]",,9.603634359984426,7.2372857599984854,4.970703459985089,"[-0.18888888888888888, -0.3398148148148148, 0.31574074074074077]","[-0.3351851851851852, -0.1675925925925926, 0.28055555555555556]","[1, 1, 1]","[0, 0, 0]","[0, 0, 0]","[4.966912100004265, 7.233696100011002, 9.6004787000129]",0.002738159993896261,9.602924359991448,['A1'],['B3'],['C2'],['blue'],['yellow'],['salmon'],1615.5213077999942,None,10.0,2.2968760000076145,1615.5213077999942,None,1626.1545371999964,None,10.0,2.1319462999963434,1622.4213316999958,None,3.0,3.731415400005062,1617.9378264999978,None,10.0,4.481142200005706,<function functionImportanceC at 0x0000023E811B2F28>,<function functionImportanceA at 0x0000023E811B27B8>,<function functionImportanceB at 0x0000023E811B2950>,,,1.0,3.097629900003085,8.0,3.731415400005062,8.0,2.7810934000008274,<function functiondiffB at 0x0000023E811B2730>,<function functiondiffA at 0x0000023E80ECFEA0>,<function functiondiffC at 0x0000023E811B2D08>,,,,,1605.4350334999908,1634.1709412999917,None,1631.3712095999945,None,1628.2544791999971,None,006,001,2022_Jun_14_1018,2leo,2021.2.3,59.978683572395056,
3,25,Plan how you want to read a book in your free time ,Stimuli/25A1.jpg,Stimuli/25A2.jpg,Stimuli/25A3.jpg,Stimuli/25B1.jpg,Stimuli/25B2.jpg,Stimuli/25B3.jpg,Stimuli/25C1.jpg,Stimuli/25C2.jpg,Stimuli/25C3.jpg,,,,,0,27,27,25,,,,,,,,1636.303803200004,None,1637.3041446999996,None,1643.3041402999952,None,"[-0.203, -0.347]","[-0.2, 0.346]","[0.399, -0.003]","[0.066, -0.395]","[-0.377, 0.138]","[0.306, 0.255]","[0.304, -0.26]","[-0.378, -0.136]","[0.07, 0.393]",,5.680357639997965,10.730659539985936,22.714007539994782,"[-0.19814814814814816, -0.30648148148148147, 0.06666666666666667]","[-0.34444444444444444, 0.10833333333333334, 0.4083333333333333]","[1, 1, 1]","[0, 0, 0]","[0, 0, 0]","[5.678977700008545, 10.728904900010093, 22.711911899998086]",0.0009757399966474622,22.712523939990206,['A1'],['B2'],['C3'],['blue'],['salmon'],['yellow'],1667.9699166999926,None,10.0,3.4966356999939308,1667.9699166999926,None,1671.5701750000007,None,8.0,3.581052200010163,1675.1368307999946,None,10.0,2.464361499994993,1677.924067,None,10.0,3.282108100000187,<function functionImportanceB at 0x0000023E811B21E0>,<function functionImportanceA at 0x0000023E80ECF7B8>,<function functionImportanceC at 0x0000023E811B2EA0>,,,6.0,4.498276199999964,9.0,2.464361499994993,1.0,2.314451799989911,<function functiondiffC at 0x0000023E816C46A8>,<function functiondiffB at 0x0000023E811B2378>,<function functiondiffA at 0x0000023E811B2B70>,,,,,1644.7885926000017,1680.953134700001,None,1689.3030452999956,None,1684.8031715999969,None,006,001,2022_Jun_14_1018,2leo,2021.2.3,59.978683572395056,
3,23,Plan a city trip,Stimuli/23A1.jpg,Stimuli/23A2.jpg,Stimuli/23A3.jpg,Stimuli/23B1.jpg,Stimuli/23B2.jpg,Stimuli/23B3.jpg,Stimuli/23C1.jpg,Stimuli/23C2.jpg,Stimuli/23C3.jpg,,,,,0,28,28,23,,,,,,,,1691.1357254000031,None,1692.136167100005,None,1698.1361131000012,None,"[0.399, -0.003]","[-0.2, 0.346]","[-0.203, -0.347]","[0.306, 0.255]","[-0.377, 0.138]","[0.066, -0.395]","[0.07, 0.393]","[-0.378, -0.136]","[0.304, -0.26]",,5.216667100015911,11.833293800009415,8.03425250001601,"[-0.14537037037037037, -0.387037037037037, 0.041666666666666664]","[0.32222222222222224, -0.15185185185185185, -0.4]","[1, 1, 1]","[0, 0, 0]","[0, 0, 0]","[5.215360000001965, 8.032562299995334, 11.83176739999908]",0.0006741000106558204,11.832207700019353,['A2'],['B3'],['C2'],['blue'],['salmon'],['yellow'],1711.618753399991,None,10.0,1.5635986999986926,1711.618753399991,None,1717.8695154000015,None,10.0,1.5152246999932686,1713.2354426999955,None,8.0,2.5146912000054726,1715.818962099991,None,-0.0,2.0652168999949936,<function functionImportanceA at 0x0000023E80ECF6A8>,<function functionImportanceC at 0x0000023E816C4158>,<function functionImportanceB at 0x0000023E816C40D0>,,,8.0,4.881224299999303,3.0,2.5146912000054726,8.0,2.4147852000023704,<function functiondiffB at 0x0000023E811B2E18>,<function functiondiffC at 0x0000023E816C4488>,<function functiondiffA at 0x0000023E811B20D0>,,,,,1699.3014385999995,1724.2687355999951,None,1727.885009199992,None,1719.3688171999966,None,006,001,2022_Jun_14_1018,2leo,2021.2.3,59.978683572395056,
3,42,Plan how to draw a painting ,Stimuli/42A1.jpg,Stimuli/42A2.jpg,Stimuli/42A3.jpg,Stimuli/42B1.jpg,Stimuli/42B2.jpg,Stimuli/42B3.jpg,Stimuli/42C1.jpg,Stimuli/42C2.jpg,Stimuli/42C3.jpg,,,,,0,29,29,42,,,,,,,,1729.8182768999977,None,1730.8184161999961,None,1736.8184498000046,None,"[-0.377, 0.138]","[0.066, -0.395]","[0.306, 0.255]","[-0.2, 0.346]","[-0.203, -0.347]","[0.399, -0.003]","[-0.378, -0.136]","[0.304, -0.26]","[0.07, 0.393]",,7.730690040014451,5.797880040016025,11.497960340013378,"[-0.1787037037037037, 0.018518518518518517, -0.4101851851851852]","[-0.33055555555555555, -0.35185185185185186, -0.18333333333333332]","[1, 1, 1]","[0, 0, 0]","[0, 0, 0]","[5.788405400002375, 7.721467900002608, 11.488322999997763]",0.008669840011862107,11.496677040006034,['A2'],['B2'],['C1'],['yellow'],['salmon'],['blue'],1750.0844133999926,None,10.0,1.9803119999996852,1750.0844133999926,None,1755.7010066999937,None,1.0,2.8983955000003334,1752.2846524999914,None,10.0,3.5481737999944016,1758.6178107000014,None,3.0,2.6484841000055894,<function functionImportanceA at 0x0000023E816C47B8>,<function functionImportanceB at 0x0000023E816C4730>,<function functionImportanceC at 0x0000023E816C4510>,,,1.0,4.448045800003456,7.0,3.5481737999944016,-0.0,2.3646297000086633,<function functiondiffC at 0x0000023E80374EA0>,<function functiondiffB at 0x0000023E806F8488>,<function functiondiffA at 0x0000023E811B2AE8>,,,,,1738.1121831999917,1761.2509666999977,None,1769.553104999999,None,1765.050880099996,None,006,001,2022_Jun_14_1018,2leo,2021.2.3,59.978683572395056,
3,10,Plan a restaurant visit with your family on the weekend ,Stimuli/10A1.jpg,Stimuli/10A2.jpg,Stimuli/10A3.jpg,Stimuli/10B1.jpg,Stimuli/10B2.jpg,Stimuli/10B3.jpg,Stimuli/10C1.jpg,Stimuli/10C2.jpg,Stimuli/10C3.jpg,,,,,0,30,30,10,,,,,,,,1783.4504489999963,None,1784.4504787000042,None,1790.450354200002,None,"[-0.2, 0.346]","[0.399, -0.003]","[-0.203, -0.347]","[-0.378, -0.136]","[0.07, 0.393]","[0.304, -0.26]","[-0.377, 0.138]","[0.306, 0.255]","[0.066, -0.395]",,10.751279960022657,6.068560760017135,4.168736460022046,"[0.06111111111111111, 0.2740740740740741, 0.3416666666666667]","[-0.362962962962963, -0.22685185185185186, -0.04814814814814815]","[1, 1, 1]","[0, 0, 0]","[0, 0, 0]","[4.151169100005063, 6.051167000012356, 10.734347300007357]",0.01642516002175398,10.75060796001344,['A2'],['B3'],['C3'],['yellow'],['blue'],['salmon'],1805.633101799991,None,10.0,1.6144175000081304,1805.633101799991,None,1816.3018747000024,None,9.0,5.448267100000521,1810.849688599992,None,1.0,2.798210199995083,1807.2996892999945,None,7.0,3.3979618000012124,<function functionImportanceC at 0x0000023E816C4B70>,<function functionImportanceA at 0x0000023E816C4BF8>,<function functionImportanceB at 0x0000023E816C4D08>,,,-0.0,3.614495000001625,6.0,2.798210199995083,3.0,3.9145882000011625,<function functiondiffA at 0x0000023E816C4E18>,<function functiondiffB at 0x0000023E816C41E0>,<function functiondiffC at 0x0000023E811B29D8>,,,,,1794.4306403999944,1826.5492155999964,None,1818.9994559000042,None,1823.6992141999945,None,006,001,2022_Jun_14_1018,2leo,2021.2.3,59.978683572395056,
3,6,Plan your wedding,Stimuli/6A1.jpg,Stimuli/6A2.jpg,Stimuli/6A3.jpg,Stimuli/6B1.jpg,Stimuli/6B2.jpg,Stimuli/6B3.jpg,Stimuli/6C1.jpg,Stimuli/6C2.jpg,Stimuli/6C3.jpg,,,,,0,31,31,6,,,,,,,,1828.6154349999997,None,1829.6157903999992,None,1835.6158099000022,None,"[-0.2, 0.346]","[0.399, -0.003]","[-0.203, -0.347]","[-0.378, -0.136]","[0.07, 0.393]","[0.304, -0.26]","[-0.377, 0.138]","[0.306, 0.255]","[0.066, -0.395]",,14.982253880021744,9.899659980030265,3.8830399800208397,"[-0.35185185185185186, 0.06851851851851852, 0.41388888888888886]","[0.09351851851851851, 0.40185185185185185, -0.04722222222222222]","[1, 1, 1]","[0, 0, 0]","[0, 0, 0]","[3.876737200000207, 9.893594499997562, 14.976456700009294]",0.005278680022456683,14.981576480029617,['A2'],['B2'],['C1'],['salmon'],['blue'],['yellow'],1856.2984168999974,None,10.0,1.8302621000038926,1856.2984168999974,None,1859.9651125999953,None,8.0,7.247734799995669,1870.2490942000004,None,10.0,3.531831400003284,1866.6495073999977,None,10.0,3.6317109999945387,<function functionImportanceB at 0x0000023E811B2C80>,<function functionImportanceC at 0x0000023E80ABBE18>,<function functionImportanceA at 0x0000023E816C4C80>,,,9.0,2.848146899996209,0.0,3.531831400003284,8.0,4.314413799991598,<function functiondiffA at 0x0000023E816C42F0>,<function functiondiffC at 0x0000023E811B26A8>,<function functiondiffB at 0x0000023E816C48C8>,,,,,1840.8549538999941,1877.3645774000033,None,1872.9147243000043,None,1880.2312164000032,None,006,001,2022_Jun_14_1018,2leo,2021.2.3,59.978683572395056,
3,11,Plan a hike in nature on a free day,Stimuli/11A1.jpg,Stimuli/11A2.jpg,Stimuli/11A3.jpg,Stimuli/11B1.jpg,Stimuli/11B2.jpg,Stimuli/11B3.jpg,Stimuli/11C1.jpg,Stimuli/11C2.jpg,Stimuli/11C3.jpg,,,,,0,32,32,11,,,,,,,,1882.1974748999928,None,1883.1977024999942,None,1889.1978151999938,None,"[0.304, -0.26]","[-0.378, -0.136]","[0.07, 0.393]","[0.066, -0.395]","[-0.377, 0.138]","[0.306, 0.255]","[-0.203, -0.347]","[-0.2, 0.346]","[0.399, -0.003]",,8.109423440007959,3.2265739400027087,5.693494439998176,"[-0.3388888888888889, 0.34814814814814815, 0.03796296296296296]","[0.1037037037037037, -0.007407407407407408, 0.3314814814814815]","[1, 1, 1]","[0, 0, 0]","[0, 0, 0]","[3.211648700002115, 5.678194100008113, 8.09468310000375]",0.014136740006506443,8.108688740001526,['A3'],['B2'],['C3'],['salmon'],['yellow'],['blue'],1898.9804426000046,None,10.0,1.7972683999978472,1898.9804426000046,None,1904.330536399997,None,10.0,2.4154517999995733,1906.7471518999955,None,2.0,2.815045099996496,1900.8806234999938,None,10.0,3.4144105999876047,<function functionImportanceC at 0x0000023E80ABBEA0>,<function functionImportanceB at 0x0000023E80374510>,<function functionImportanceA at 0x0000023E811B2D90>,,,4.0,3.431107399999746,-0.0,2.815045099996496,6.0,3.0643921999871964,<function functiondiffC at 0x0000023E816C4378>,<function functiondiffA at 0x0000023E816C4598>,<function functiondiffB at 0x0000023E816C4AE8>,,,,,1890.4022823999985,1909.5136066999985,None,1913.4803576999984,None,1916.5635916000028,None,006,001,2022_Jun_14_1018,2leo,2021.2.3,59.978683572395056,
3,14,Plan your own Pizza for dinner,Stimuli/14A1.jpg,Stimuli/14A2.jpg,Stimuli/14A3.jpg,Stimuli/14B1.jpg,Stimuli/14B2.jpg,Stimuli/14B3.jpg,Stimuli/14C1.jpg,Stimuli/14C2.jpg,Stimuli/14C3.jpg,,,,,0,33,33,14,,,,,,,,1919.513064800005,None,1920.5133662000007,None,1926.5133713999967,None,"[-0.2, 0.346]","[0.399, -0.003]","[-0.203, -0.347]","[-0.377, 0.138]","[0.306, 0.255]","[0.066, -0.395]","[-0.378, -0.136]","[0.07, 0.393]","[0.304, -0.26]",,9.449670280009741,12.967211680006585,4.888112580010784,"[0.3055555555555556, 0.39444444444444443, -0.3592592592592593]","[-0.2518518518518518, -0.03611111111111111, 0.075]","[1, 1, 1]","[0, 0, 0]","[0, 0, 0]","[4.883419700010563, 9.448403600006714, 12.965776600001846]",0.0007375800050795078,12.96587568000541,['A2'],['B1'],['C3'],['blue'],['yellow'],['salmon'],1941.146204299992,None,10.0,1.7467398999870056,1941.146204299992,None,1943.012889000005,None,6.0,4.2477243000030285,1947.2294422999985,None,9.0,2.882122700000764,1950.112804000004,None,10.0,2.6484138000087114,<function functionImportanceB at 0x0000023E81A8E598>,<function functionImportanceA at 0x0000023E811B22F0>,<function functionImportanceC at 0x0000023E81A8E268>,,,1.0,3.398005299997749,-0.0,2.882122700000764,8.0,2.3979426000005333,<function functiondiffB at 0x0000023E816C49D8>,<function functiondiffC at 0x0000023E81A8E158>,<function functiondiffA at 0x0000023E816C4EA0>,,,,,1927.6946287000028,1956.1816197000007,None,1958.4792776999966,None,1952.7794664999965,None,006,001,2022_Jun_14_1018,2leo,2021.2.3,59.978683572395056,
3,35,Plan how you want to do your grocery shopping ,Stimuli/35A1.jpg,Stimuli/35A2.jpg,Stimuli/35A3.jpg,Stimuli/35B1.jpg,Stimuli/35B2.jpg,Stimuli/35B3.jpg,Stimuli/35C1.jpg,Stimuli/35C2.jpg,Stimuli/35C3.jpg,,,,,0,34,34,35,,,,,,,,1960.395306099992,None,1961.3955361999979,None,1967.395693700004,None,"[0.399, -0.003]","[-0.203, -0.347]","[-0.2, 0.346]","[0.306, 0.255]","[0.066, -0.395]","[-0.377, 0.138]","[0.07, 0.393]","[0.304, -0.26]","[-0.378, -0.136]",,3.510402519998024,7.530595819989685,5.078291419995367,"[-0.15833333333333333, 0.27685185185185185, 0.32314814814814813]","[0.29907407407407405, -0.24537037037037038, 0.2861111111111111]","[1, 1, 1]","[0, 0, 0]","[0, 0, 0]","[3.5034784999879776, 5.071004399986123, 7.521650699985912]",0.006217919988557696,7.526723319999292,['A3'],['B1'],['C2'],['yellow'],['salmon'],['blue'],1976.6453198999952,None,10.0,2.1090999000007287,1976.6453198999952,None,1978.878417400003,None,10.0,3.997865200013621,1982.8450603999954,None,2.0,2.898333500008448,1985.728311800005,None,10.0,2.282016199998907,<function functionImportanceB at 0x0000023E81A8E488>,<function functionImportanceA at 0x0000023E81A8E510>,<function functionImportanceC at 0x0000023E81A8E8C8>,,,0.0,2.147861899997224,-0.0,2.898333500008448,2.0,2.547893599999952,<function functiondiffC at 0x0000023E816C4950>,<function functiondiffA at 0x0000023E816C4D90>,<function functiondiffB at 0x0000023E816C4048>,,,,,1968.6236512000032,1988.0119261999935,None,1991.5117093000008,None,1994.0948487999995,None,006,001,2022_Jun_14_1018,2leo,2021.2.3,59.978683572395056,
3,1,Plan how to study for an exam,Stimuli/1A1.jpg,Stimuli/1A2.jpg,Stimuli/1A3.jpg,Stimuli/1B1.jpg,Stimuli/1B2.jpg,Stimuli/1B3.jpg,Stimuli/1C1.jpg,Stimuli/1C2.jpg,Stimuli/1C3.jpg,,,,,0,35,35,1,,,,,,,,1995.7443702000019,None,1996.744754200001,None,2002.7447429000022,None,"[-0.2, 0.346]","[-0.203, -0.347]","[0.399, -0.003]","[-0.378, -0.136]","[0.304, -0.26]","[0.07, 0.393]","[-0.377, 0.138]","[0.066, -0.395]","[0.306, 0.255]",,9.133562660004827,11.900743760008481,3.5844050599989714,"[-0.3861111111111111, -0.225, -0.37407407407407406]","[0.13333333333333333, 0.30648148148148147, -0.1425925925925926]","[1, 1, 1]","[0, 0, 0]","[0, 0, 0]","[3.582610500001465, 9.132346099999268, 11.899195299993153]",0.0008171600056812167,11.899751560005825,['A1'],['B1'],['C1'],['yellow'],['blue'],['salmon'],2016.2441689999978,None,10.0,1.6301088000036543,2016.2441689999978,None,2025.494143399992,None,1.0,2.0985634999960894,2021.8774925000034,None,10.0,3.598347699997248,2017.911005499991,None,9.0,3.914685499999905,<function functionImportanceC at 0x0000023E81A8EA60>,<function functionImportanceA at 0x0000023E81A8E9D8>,<function functionImportanceB at 0x0000023E81A8E048>,,,0.0,3.2979820999898948,2.0,3.598347699997248,4.0,3.6479283000080613,<function functiondiffA at 0x0000023E81A8EEA0>,<function functiondiffB at 0x0000023E81A8EF28>,<function functiondiffC at 0x0000023E81A8E1E0>,,,,,2003.8616129000002,2034.5438231000007,None,2027.5774204000045,None,2031.2272592999943,None,006,001,2022_Jun_14_1018,2leo,2021.2.3,59.978683572395056,
3,39,Plan what kind of watch you want to buy,Stimuli/39A1.jpg,Stimuli/39A2.jpg,Stimuli/39A3.jpg,Stimuli/39B1.jpg,Stimuli/39B2.jpg,Stimuli/39B3.jpg,Stimuli/39C1.jpg,Stimuli/39C2.jpg,Stimuli/39C3.jpg,,,,,0,36,36,39,,,,,,,,2036.376639299997,None,2037.376909899991,None,2043.3771483000019,None,"[-0.2, 0.346]","[0.399, -0.003]","[-0.203, -0.347]","[-0.378, -0.136]","[0.07, 0.393]","[0.304, -0.26]","[-0.377, 0.138]","[0.306, 0.255]","[0.066, -0.395]",,9.61027427999943,5.744433779997053,14.144056479999563,"[0.041666666666666664, -0.13425925925925927, -0.44537037037037036]","[0.34814814814814815, 0.33611111111111114, 0.10462962962962963]","[1, 1, 1]","[0, 0, 0]","[0, 0, 0]","[5.729193299994222, 9.59538959999918, 14.128650999991805]",0.014463179992162623,14.142924080006196,['A1'],['B2'],['C1'],['blue'],['salmon'],['yellow'],2059.1596034999966,None,10.0,1.9477015000011306,2059.1596034999966,None,2065.509795399994,None,10.0,1.9819084999908227,2061.1765445999918,None,8.0,4.330806800004211,2067.559707499997,None,0.0,2.8983446000056574,<function functionImportanceA at 0x0000023E816C4840>,<function functionImportanceB at 0x0000023E81A8E6A8>,<function functionImportanceC at 0x0000023E81A8ED08>,,,-0.0,1.9478868000005605,3.0,4.330806800004211,7.0,2.9128019999916432,<function functiondiffC at 0x0000023E81D2B598>,<function functiondiffA at 0x0000023E81A8EC80>,<function functiondiffB at 0x0000023E81A8E7B8>,,,,,2044.5450027000043,2070.4095552999934,None,2074.8593567999924,None,2077.7926708000014,None,006,001,2022_Jun_14_1018,2leo,2021.2.3,59.978683572395056,
3,13,Plan a romantic date this weekend,Stimuli/13A1.jpg,Stimuli/13A2.jpg,Stimuli/13A3.jpg,Stimuli/13B1.jpg,Stimuli/13B2.jpg,Stimuli/13B3.jpg,Stimuli/13C1.jpg,Stimuli/13C2.jpg,Stimuli/13C3.jpg,,,,,0,37,37,13,,,,,,,,2079.2588471999916,None,2080.2592762999993,None,2086.259289399997,None,"[0.304, -0.26]","[-0.378, -0.136]","[0.07, 0.393]","[-0.203, -0.347]","[-0.2, 0.346]","[0.399, -0.003]","[0.066, -0.395]","[-0.377, 0.138]","[0.306, 0.255]",,5.086288439997588,13.169767839994165,8.703480239986675,"[0.325, 0.06111111111111111, -0.19074074074074074]","[-0.2657407407407407, -0.375, -0.3490740740740741]","[1, 1, 1]","[0, 0, 0]","[0, 0, 0]","[5.083390700005111, 8.70005040000251, 13.166585400002077]",0.002481239993358031,13.168745439994382,['A1'],['B1'],['C1'],['salmon'],['blue'],['yellow'],2101.125283699992,None,10.0,1.696859300005599,2101.125283699992,None,2102.941997300004,None,10.0,3.931196799996542,2106.841708699998,None,1.0,2.415264399998705,2109.2750666999927,None,10.0,1.5485611999902176,<function functionImportanceB at 0x0000023E81D2B0D0>,<function functionImportanceA at 0x0000023E816C4A60>,<function functionImportanceC at 0x0000023E81D2B048>,,,7.0,3.897520299986354,1.0,2.415264399998705,-0.0,2.3478883000061614,<function functiondiffB at 0x0000023E81A8E620>,<function functiondiffC at 0x0000023E81A8EB70>,<function functiondiffA at 0x0000023E80ABB620>,,,,,2087.474619899993,2114.725049200002,None,2118.474932500001,None,2110.8251323000004,None,006,001,2022_Jun_14_1018,2leo,2021.2.3,59.978683572395056,
3,27,Plan what festival to visit with your friends,Stimuli/27A1.jpg,Stimuli/27A2.jpg,Stimuli/27A3.jpg,Stimuli/27B1.jpg,Stimuli/27B2.jpg,Stimuli/27B3.jpg,Stimuli/27C1.jpg,Stimuli/27C2.jpg,Stimuli/27C3.jpg,,,,,0,38,38,27,,,,,,,,2120.341109599991,None,2121.3414164999995,None,2127.3414851999987,None,"[0.399, -0.003]","[-0.2, 0.346]","[-0.203, -0.347]","[0.306, 0.255]","[-0.377, 0.138]","[0.066, -0.395]","[0.07, 0.393]","[-0.378, -0.136]","[0.304, -0.26]",,16.271981240002788,8.989200540003367,12.722535940003581,"[-0.33425925925925926, 0.1, 0.4361111111111111]","[0.11388888888888889, 0.3962962962962963, 0.032407407407407406]","[1, 1, 1]","[0, 0, 0]","[0, 0, 0]","[8.985012300006929, 12.718238700006623, 16.26820289999887]",0.0033673400030238554,16.27127574001497,['A1'],['B2'],['C1'],['blue'],['yellow'],['salmon'],2145.2241364999936,None,8.0,1.7803271000011591,2145.2241364999936,None,2147.074172599998,None,1.0,3.6983092999871587,2154.6573835000017,None,10.0,2.1151150000077905,2150.790647200003,None,9.0,3.86548199999379,<function functionImportanceB at 0x0000023E81D2B9D8>,<function functionImportanceC at 0x0000023E81D2B488>,<function functionImportanceA at 0x0000023E81D2B8C8>,,,7.0,4.2478758999932325,-0.0,2.1151150000077905,3.0,3.06466870001168,<function functiondiffB at 0x0000023E81A8EBF8>,<function functiondiffA at 0x0000023E81A8EAE8>,<function functiondiffC at 0x0000023E81D2BA60>,,,,,2128.4709169999987,2164.125910799994,None,2161.040618400002,None,2156.7739573,None,006,001,2022_Jun_14_1018,2leo,2021.2.3,59.978683572395056,
3,38,Plan how you want to go for a run,Stimuli/38A1.jpg,Stimuli/38A2.jpg,Stimuli/38A3.jpg,Stimuli/38B1.jpg,Stimuli/38B2.jpg,Stimuli/38B3.jpg,Stimuli/38C1.jpg,Stimuli/38C2.jpg,Stimuli/38C3.jpg,,,,,0,39,39,38,,,,,,,,2166.139927700002,None,2167.140273900004,None,2173.1404091000004,None,"[0.304, -0.26]","[0.07, 0.393]","[-0.378, -0.136]","[0.066, -0.395]","[0.306, 0.255]","[-0.377, 0.138]","[-0.203, -0.347]","[0.399, -0.003]","[-0.2, 0.346]",,9.317744319996564,4.884793420002097,11.284893920004833,"[0.1, 0.0787037037037037, -0.16018518518518518]","[-0.3296296296296296, 0.37592592592592594, 0.375]","[1, 1, 1]","[0, 0, 0]","[0, 0, 0]","[4.874099699998624, 9.307207000005292, 11.273788400008925]",0.0099999200028833,11.28352912000264,['A2'],['B1'],['C3'],['blue'],['salmon'],['yellow'],2186.122814000002,None,10.0,1.798027099997853,2186.122814000002,None,2190.5062547999987,None,10.0,2.1652406999928644,2192.706105099991,None,10.0,2.548288300007698,2188.089827399992,None,2.0,2.512032200000249,<function functionImportanceC at 0x0000023E81A8E2F0>,<function functionImportanceB at 0x0000023E81A8E950>,<function functionImportanceA at 0x0000023E81A8E0D0>,,,1.0,3.8977840000006836,6.0,2.548288300007698,6.0,2.781335300009232,<function functiondiffB at 0x0000023E81D2B730>,<function functiondiffC at 0x0000023E81D2BD90>,<function functiondiffA at 0x0000023E81D2B6A8>,,,,,2174.3648275000014,2199.172747100005,None,2202.3560595000017,None,2195.2395969999925,None,006,001,2022_Jun_14_1018,2leo,2021.2.3,59.978683572395056,
3,40,Plan to see a sports event ,Stimuli/40A1.jpg,Stimuli/40A2.jpg,Stimuli/40A3.jpg,Stimuli/40B1.jpg,Stimuli/40B2.jpg,Stimuli/40B3.jpg,Stimuli/40C1.jpg,Stimuli/40C2.jpg,Stimuli/40C3.jpg,,,,,0,40,40,40,,,,,,,,2204.6743465000036,None,2205.689385199992,None,2211.6893049999926,None,"[0.07, 0.393]","[0.304, -0.26]","[-0.378, -0.136]","[0.399, -0.003]","[-0.203, -0.347]","[-0.2, 0.346]","[0.306, 0.255]","[0.066, -0.395]","[-0.377, 0.138]",,19.778592399990885,6.97886259999359,4.3462550999975065,"[-0.3212962962962963, -0.19537037037037036, 0.3074074074074074]","[0.0787037037037037, -0.32592592592592595, -0.30277777777777776]","[1, 1, 1]","[0, 0, 0]","[0, 0, 0]","[4.337445500001195, 6.970355199999176, 19.770364700001664]",0.007702399991103448,19.77778699999908,['A2'],['B2'],['C3'],['yellow'],['blue'],['salmon'],2233.2717125999916,None,10.0,1.946806399995694,2233.2717125999916,None,2235.4218180000025,None,10.0,3.498312600000645,2238.821798899997,None,10.0,2.364686199987773,2241.189291200004,None,2.0,2.481903100007912,<function functionImportanceB at 0x0000023E81D2BD08>,<function functionImportanceA at 0x0000023E81D2B7B8>,<function functionImportanceC at 0x0000023E82096048>,,,0.0,3.9473974999855272,0.0,2.364686199987773,4.0,4.530613000009907,<function functiondiffA at 0x0000023E81D2BF28>,<function functiondiffB at 0x0000023E81D2BC80>,<function functiondiffC at 0x0000023E81D2BAE8>,,,,,2213.0173681000015,2252.171433399999,None,2243.6549868,None,2248.238358200004,None,006,001,2022_Jun_14_1018,2leo,2021.2.3,59.978683572395056,
3,24,Plan your Monday morning on a workday ,Stimuli/24A1.jpg,Stimuli/24A2.jpg,Stimuli/24A3.jpg,Stimuli/24B1.jpg,Stimuli/24B2.jpg,Stimuli/24B3.jpg,Stimuli/24C1.jpg,Stimuli/24C2.jpg,Stimuli/24C3.jpg,,,,,0,41,41,24,,,,,,,,2253.687764999995,None,2254.687954599998,None,2260.687877599994,None,"[0.306, 0.255]","[0.066, -0.395]","[-0.377, 0.138]","[0.07, 0.393]","[0.304, -0.26]","[-0.378, -0.136]","[0.399, -0.003]","[-0.203, -0.347]","[-0.2, 0.346]",,10.277167140011443,3.844008340020082,13.577328740007943,"[0.10092592592592593, -0.42777777777777776, -0.2611111111111111]","[0.41759259259259257, 0.09166666666666666, 0.2833333333333333]","[1, 1, 1]","[0, 0, 0]","[0, 0, 0]","[3.8375104000006104, 10.270821999991313, 13.57042599999113]",0.005736040009651333,13.576151340006618,['A3'],['B1'],['C3'],['salmon'],['yellow'],['blue'],2275.870592499996,None,10.0,2.1306946000113385,2275.870592499996,None,2278.0707683999935,None,9.0,5.297632899993914,2285.853894400003,None,10.0,2.581797100006952,2283.3872435999947,None,2.0,2.4652451000001747,<function functionImportanceB at 0x0000023E81D2BEA0>,<function functionImportanceC at 0x0000023E81A8E840>,<function functionImportanceA at 0x0000023E81D2BBF8>,,,3.0,4.447690400003921,4.0,2.581797100006952,7.0,3.0812989999976708,<function functiondiffB at 0x0000023E81D2B510>,<function functiondiffC at 0x0000023E81D2B268>,<function functiondiffA at 0x0000023E81D2B620>,,,,,2261.8141598999937,2292.9038398999983,None,2296.553604300003,None,2288.4373533000035,None,006,001,2022_Jun_14_1018,2leo,2021.2.3,59.978683572395056,
3,5,Plan a birthday party for your younger self when you turn eight,Stimuli/5A1.jpg,Stimuli/5A2.jpg,Stimuli/5A3.jpg,Stimuli/5B1.jpg,Stimuli/5B2.jpg,Stimuli/5B3.jpg,Stimuli/5C1.jpg,Stimuli/5C2.jpg,Stimuli/5C3.jpg,,,,,0,42,42,5,,,,,,,,2299.1530593999923,None,2300.1533436000027,None,2306.153474599996,None,"[0.306, 0.255]","[0.066, -0.395]","[-0.377, 0.138]","[0.07, 0.393]","[0.304, -0.26]","[-0.378, -0.136]","[0.399, -0.003]","[-0.203, -0.347]","[-0.2, 0.346]",,19.824390280031366,12.80682438002259,7.690807680031867,"[-0.1361111111111111, 0.31203703703703706, 0.3472222222222222, 0.3435185185185185]","[-0.30185185185185187, -0.2814814814814815, 0.15092592592592594, 0.23796296296296296]","[1, 1, 1, 1]","[0, 0, 0, 0]","[0, 0, 0, 0]","[7.677588999998989, 12.793875499992282, 19.393949799996335, 19.81133349999436]",0.012151180024375208,19.823123580034007,['A1'],['B2'],['C2'],['yellow'],['salmon'],['blue'],2332.269121599995,None,10.0,1.9966270000004442,2332.269121599995,None,2340.0021969999943,None,0.0,3.731721699994523,2344.8379024000023,None,7.0,4.231721200005268,2334.954792199991,None,9.0,4.1812838000041666,<function functionImportanceC at 0x0000023E820969D8>,<function functionImportanceB at 0x0000023E82096C80>,<function functionImportanceA at 0x0000023E81A8EE18>,,,3.0,3.2643485000007786,8.0,4.231721200005268,9.0,3.214519000001019,<function functiondiffC at 0x0000023E81A8ED90>,<function functiondiffB at 0x0000023E81D2BE18>,<function functiondiffA at 0x0000023E81D2B950>,,,,,2311.9786830999947,2346.635716799996,None,2354.5521791999927,None,2350.852239,None,006,001,2022_Jun_14_1018,2leo,2021.2.3,59.978683572395056,
3,2,Plan which ingredients you want to use for cooking dinner today,Stimuli/2A1.jpg,Stimuli/2A2.jpg,Stimuli/2A3.jpg,Stimuli/2B1.jpg,Stimuli/2B2.jpg,Stimuli/2B3.jpg,Stimuli/2C1.jpg,Stimuli/2C2.jpg,Stimuli/2C3.jpg,,,,,0,43,43,2,,,,,,,,2356.535316399997,None,2357.535143500005,None,2363.5353867999947,None,"[-0.378, -0.136]","[0.07, 0.393]","[0.304, -0.26]","[-0.377, 0.138]","[0.306, 0.255]","[0.066, -0.395]","[-0.2, 0.346]","[0.399, -0.003]","[-0.203, -0.347]",,10.73604922000959,13.469622420016094,4.837122520009871,"[-0.2222222222222222, -0.3194444444444444, -0.34074074074074073]","[-0.34444444444444444, -0.1527777777777778, 0.15555555555555556]","[1, 1, 1]","[0, 0, 0]","[0, 0, 0]","[4.832146600005217, 10.7317347000062, 13.46502890001284]",0.003851020010188222,13.468762120013707,['A1'],['B1'],['C3'],['salmon'],['yellow'],['blue'],2383.6844323999976,None,10.0,1.563809900006163,2383.6844323999976,None,2388.6845305000024,None,4.0,8.314155899992329,2394.8510421999963,None,10.0,2.965273399997386,2397.250955800002,None,10.0,3.115173300000606,<function functionImportanceB at 0x0000023E82096EA0>,<function functionImportanceA at 0x0000023E820961E0>,<function functionImportanceC at 0x0000023E82096488>,,,3.0,4.381180900003528,0.0,2.965273399997386,9.0,2.7310224000102608,<function functiondiffB at 0x0000023E82096D08>,<function functiondiffA at 0x0000023E81A8E400>,<function functiondiffC at 0x0000023E82096D90>,,,,,2369.7535478999926,2407.0508248999977,None,2404.4342395999993,None,2400.5676071999915,None,006,001,2022_Jun_14_1018,2leo,2021.2.3,59.978683572395056,
3,9,Plan a picnic with friends,Stimuli/9A1.jpg,Stimuli/9A2.jpg,Stimuli/9A3.jpg,Stimuli/9B1.jpg,Stimuli/9B2.jpg,Stimuli/9B3.jpg,Stimuli/9C1.jpg,Stimuli/9C2.jpg,Stimuli/9C3.jpg,,,,,0,44,44,9,,,,,,,,2408.653744700001,None,2409.6670938000025,None,2415.667321400004,None,"[-0.203, -0.347]","[-0.2, 0.346]","[0.399, -0.003]","[0.066, -0.395]","[-0.377, 0.138]","[0.306, 0.255]","[0.304, -0.26]","[-0.378, -0.136]","[0.07, 0.393]",,4.043995400017593,8.811001600028249,5.211260600030073,"[-0.18055555555555555, -0.30648148148148147, 0.11296296296296296]","[-0.35462962962962963, -0.1527777777777778, -0.3648148148148148]","[1, 1, 1]","[0, 0, 0]","[0, 0, 0]","[4.0308010000007926, 5.197493300001952, 8.797568499998306]",0.012741400016238913,8.809999400022207,['A1'],['B1'],['C2'],['salmon'],['yellow'],['blue'],2430.483234500003,None,10.0,1.3804267999948934,2430.483234500003,None,2433.350047999993,None,2.0,7.897500999999465,2441.4332218999916,None,8.0,3.8482229999935953,2445.2162710999983,None,10.0,3.2980897999950685,<function functionImportanceB at 0x0000023E82096620>,<function functionImportanceA at 0x0000023E82096F28>,<function functionImportanceC at 0x0000023E82096E18>,,,6.0,2.7142079999903217,-0.0,3.8482229999935953,0.0,2.2976294999971287,<function functiondiffC at 0x0000023E81D2B378>,<function functiondiffA at 0x0000023E816C4400>,<function functiondiffB at 0x0000023E820960D0>,,,,,2421.2205786999984,2447.4497751000017,None,2451.2829967,None,2453.516055100001,None,006,001,2022_Jun_14_1018,2leo,2021.2.3,59.978683572395056,
