Condition,N_Scenario,written_scenario,ImageA1,ImageA2,ImageA3,ImageB1,ImageB2,ImageB3,ImageC1,ImageC2,ImageC3,trials_2.thisRepN,trials_2.thisTrialN,trials_2.thisN,trials_2.thisIndex,trial.thisRepN,trial.thisTrialN,trial.thisN,trial.thisIndex,button_2.started,button_2.stopped,button_2.numClicks,button_2.timesOn,button_2.timesOff,text.started,text.stopped,fixationcross1_started,fixationcross1_stopped,Scenario_started,Scenario_stopped,fixationcross2_started,fixationcross2_stopped,A1pos,A2pos,A3pos,B1pos,B2pos,B3pos,C1pos,C2pos,C3pos,﻿Imagesdecision_started,decisiontimeA,decisiontimeB,decisiontimeC,mouse_x,mouse_y,mouse_leftButton,mouse_midButton,mouse_rightButton,mouse_time,mouse_started,mouse_stopped,clicked_optionA,clicked_optionB,clicked_optionC,colour_category_A,colour_category_B,colour_category_C,question_confidence_started,question_confidence_stopped,slider_confidence_response,slider_confidence_rt,slider_confidence_started,slider_confidence_stopped,question_valueA_started,question_valueA_stopped,slider_valueA_response,slider_valueA_rt,question_valueC_started,question_valueC_stopped,slider_valueC_response,slider_valueC_rt,question_valueB_started,question_valueB_stopped,slider_valueB_response,slider_valueB_rt,Importance_First,Importance_Second,Importance_Third,question_diff_started,question_diff_stopped,slider_diffB_response,slider_diffB_rt,slider_diffC_response,slider_diffC_rt,slider_diffA_response,slider_diffA_rt,diff_First,diff_Second,diff_Third,button_3_started,button_3_stopped,text_2_started,text_2_stopped,Imagesdecision_started,question_diffA_started,question_diffA_stopped,question_diffB_started,question_diffB_stopped,question_diffC_started,question_diffC_stopped,participant,session,date,expName,psychopyVersion,frameRate,
3,2,Plan a party to celebrate your birthday,Stimuli/2A1t.jpg,Stimuli/2A2t.jpg,Stimuli/2A3t.jpg,Stimuli/2B1t.jpg,Stimuli/2B2t.jpg,Stimuli/2B3t.jpg,Stimuli/2C1t.jpg,Stimuli/2C2t.jpg,Stimuli/2C3t.jpg,0,0,0,0,,,,,19.62807690000045,None,1,[5.49841749999905],[5.498421500000404],19.62807690000045,None,69.05731260000175,None,70.06157460000031,None,76.0616508000021,None,"[-0.378, -0.136]","[0.304, -0.26]","[0.07, 0.393]","[-0.377, 0.138]","[0.066, -0.395]","[0.306, 0.255]","[-0.2, 0.346]","[-0.203, -0.347]","[0.399, -0.003]",80.08821790000002,18.96638819999862,23.700148599997192,26.383742999998503,"[-0.3194444444444444, 0.08425925925925926, -0.1814814814814815]","[-0.0787037037037037, -0.31296296296296294, 0.27685185185185185]","[1, 1, 1]","[0, 0, 0]","[0, 0, 0]","[18.953587100000732, 23.687022300000535, 26.370473900002253]",0.012357299998257076,26.38238199999614,['A1'],['B2'],['C1'],['salmon'],['yellow'],['blue'],106.92729139999938,None,8.0,6.8133318000000145,106.92729139999938,None,115.09364199999982,None,9.0,14.180860300002678,128.02658320000046,None,3.0,8.03173919999972,137.59897640000054,None,7.0,12.998003799999424,<function functionImportanceAt at 0x0000015B41C91950>,<function functionImportanceCt at 0x0000015B326A1E18>,<function functionImportanceBt at 0x0000015B41C91A60>,161.10895589999927,None,7.0,6.547203499998432,2.0,5.047563899999659,3.0,14.180860300002678,<function functiondiffBt at 0x0000015B42A4DEA0>,<function functiondiffCt at 0x0000015B42A4DD90>,<function functiondiffAt at 0x0000015B42A4DF28>,,,,,,,,,,,,20,001,2022_Jul_19_1456,2leo,2021.2.3,59.99304080709298,
3,3,Plan one week of vacation,Stimuli/3A1t.jpg,Stimuli/3A2t.jpg,Stimuli/3A3t.jpg,Stimuli/3B1t.jpg,Stimuli/3B2t.jpg,Stimuli/3B3t.jpg,Stimuli/3C1t.jpg,Stimuli/3C2t.jpg,Stimuli/3C3t.jpg,0,1,1,1,,,,,,,,,,,,168.70880340000076,None,169.70887380000204,None,175.70861739999964,None,"[0.399, -0.003]","[-0.2, 0.346]","[-0.203, -0.347]","[0.07, 0.393]","[-0.378, -0.136]","[0.304, -0.26]","[0.306, 0.255]","[-0.377, 0.138]","[0.066, -0.395]",181.8115285999993,30.326585749990045,28.476642649988207,29.46045814998797,"[0.020370370370370372, 0.2351851851851852, -0.14814814814814814]","[0.3861111111111111, 0.3175925925925926, 0.32314814814814813]","[1, 1, 1]","[0, 0, 0]","[0, 0, 0]","[28.461518899999646, 29.44512720000057, 30.31166630000007]",0.01440744999126764,30.32584304998818,['A2'],['B1'],['C1'],['salmon'],['yellow'],['blue'],212.59064900000158,None,7.0,4.830562399998598,212.59064900000158,None,219.3765439000017,None,8.0,8.964240900000732,227.89053240000067,None,5.0,4.431813499999407,232.6069662000009,None,8.0,7.848063600002206,<function functionImportanceAt at 0x0000015B37305E18>,<function functionImportanceCt at 0x0000015B3EFE0F28>,<function functionImportanceBt at 0x0000015B3F8BB9D8>,254.40612479999982,None,3.0,5.564935999998852,3.0,10.830935999998474,2.0,8.964240900000732,<function functiondiffCt at 0x0000015B42A4DA60>,<function functiondiffAt at 0x0000015B42A4D598>,<function functiondiffBt at 0x0000015B42A4D158>,,,,,,,,,,,,20,001,2022_Jul_19_1456,2leo,2021.2.3,59.99304080709298,
3,31,Plan your order at a restaurant    ,Stimuli/31A1.jpg,Stimuli/31A2.jpg,Stimuli/31A3.jpg,Stimuli/31B1.jpg,Stimuli/31B2.jpg,Stimuli/31B3.jpg,Stimuli/31C1.jpg,Stimuli/31C2.jpg,Stimuli/31C3.jpg,,,,,0,0,0,31,,,,,,,,327.3707772000016,None,328.35432199999923,None,334.35427080000227,None,"[0.066, -0.395]","[-0.377, 0.138]","[0.306, 0.255]","[-0.203, -0.347]","[-0.2, 0.346]","[0.399, -0.003]","[0.304, -0.26]","[-0.378, -0.136]","[0.07, 0.393]",,25.187982600000396,22.721784400000615,26.871971000000485,"[-0.16203703703703703, -0.3194444444444444, -0.34629629629629627]","[0.3111111111111111, 0.1574074074074074, -0.0787037037037037]","[1, 1, 1]","[0, 0, 0]","[0, 0, 0]","[22.720858299999236, 25.187386900001002, 26.870867099998577]",9.359999967273325e-05,26.87066760000016,['A2'],['B2'],['C2'],['yellow'],['blue'],['salmon'],364.3696979000015,None,8.0,2.8796818000009807,364.3696979000015,None,379.85299769999983,None,9.0,4.432540900001186,374.6028584000014,None,5.0,3.833270300001459,367.3531910999991,None,9.0,7.196977700001298,<function functionImportanceB at 0x0000015B41C91D08>,<function functionImportanceC at 0x0000015B03B49B70>,<function functionImportanceA at 0x0000015B42A4DBF8>,,,8.0,6.180931499999133,7.0,4.432540900001186,2.0,5.013803099998768,<function functiondiffA at 0x0000015B42A4D6A8>,<function functiondiffB at 0x0000015B41C916A8>,<function functiondiffC at 0x0000015B41C91E18>,259.0895969000012,None,259.0895969000012,None,337.0328150999994,383.1712116000017,None,387.8360243999996,None,394.0356854999991,None,20,001,2022_Jul_19_1456,2leo,2021.2.3,59.99304080709298,
3,25,Plan how you want to read a book in your free time ,Stimuli/25A1.jpg,Stimuli/25A2.jpg,Stimuli/25A3.jpg,Stimuli/25B1.jpg,Stimuli/25B2.jpg,Stimuli/25B3.jpg,Stimuli/25C1.jpg,Stimuli/25C2.jpg,Stimuli/25C3.jpg,,,,,0,1,1,25,,,,,,,,399.9356212999992,None,400.93561039999986,None,406.935646599999,None,"[-0.203, -0.347]","[-0.2, 0.346]","[0.399, -0.003]","[0.066, -0.395]","[-0.377, 0.138]","[0.306, 0.255]","[0.304, -0.26]","[-0.378, -0.136]","[0.07, 0.393]",,23.409909750000224,26.376900449999084,18.960759050001798,"[0.046296296296296294, -0.1824074074074074, -0.32685185185185184]","[0.3490740740740741, -0.27870370370370373, 0.07222222222222222]","[1, 1, 1]","[0, 0, 0]","[0, 0, 0]","[18.94688540000061, 23.396722299999965, 26.363353600001574]",0.012676250000367872,26.375933350002015,['A1'],['B2'],['C3'],['salmon'],['blue'],['yellow'],435.2842621000018,None,7.0,5.713904200001707,435.2842621000018,None,441.10128579999946,None,9.0,4.481094299997494,450.0848948999992,None,7.0,3.7316124999997555,445.60104520000095,None,3.0,4.198374300001888,<function functionImportanceA at 0x0000015B42A4D9D8>,<function functionImportanceB at 0x0000015B03B496A8>,<function functionImportanceC at 0x0000015B03B49950>,,,6.0,3.1474754000009852,2.0,4.481094299997494,1.0,4.031488399999944,<function functiondiffC at 0x0000015B03B49840>,<function functiondiffA at 0x0000015B03B497B8>,<function functiondiffB at 0x0000015B03B49BF8>,,,,,408.4494799000022,457.15065790000153,None,461.21738800000094,None,453.5840777000012,None,20,001,2022_Jul_19_1456,2leo,2021.2.3,59.99304080709298,
3,0,Plan a barbecue,Stimuli/0A1.jpg,Stimuli/0A2.jpg,Stimuli/0A3.jpg,Stimuli/0B1.jpg,Stimuli/0B2.jpg,Stimuli/0B3.jpg,Stimuli/0C1.jpg,Stimuli/0C2.jpg,Stimuli/0C3.jpg,,,,,0,2,2,0,,,,,,,,463.8836295000001,None,464.8837117000003,None,470.8837096999996,None,"[-0.2, 0.346]","[-0.203, -0.347]","[0.399, -0.003]","[-0.377, 0.138]","[0.066, -0.395]","[0.306, 0.255]","[-0.378, -0.136]","[0.304, -0.26]","[0.07, 0.393]",,20.36753119999412,19.318076899995503,21.45171699999628,"[0.3333333333333333, -0.14722222222222223, 0.019444444444444445]","[0.23055555555555557, 0.2898148148148148, 0.3277777777777778]","[1, 1, 1]","[0, 0, 0]","[0, 0, 0]","[19.302108700001554, 20.351994399999967, 21.435487499999]",0.015133299995795824,21.45038669999485,['A1'],['B3'],['C3'],['salmon'],['blue'],['yellow'],495.2828625000002,None,8.0,3.413833300000988,495.2828625000002,None,503.9994547999995,None,3.0,5.0814900000004855,498.76625830000194,None,8.0,3.864203600001929,507.7490504000016,None,5.0,7.664748600000166,<function functionImportanceC at 0x0000015B42A4D378>,<function functionImportanceA at 0x0000015B42A4D730>,<function functionImportanceB at 0x0000015B42A4D1E0>,,,4.0,5.347662299998774,1.0,5.0814900000004855,5.0,4.681241800000862,<function functiondiffB at 0x0000015B03B498C8>,<function functiondiffA at 0x0000015B42A4D620>,<function functiondiffC at 0x0000015B03B49A60>,,,,,473.3780246000024,521.1656569000006,None,515.3828295999992,None,525.465489000002,None,20,001,2022_Jul_19_1456,2leo,2021.2.3,59.99304080709298,
3,39,Plan what kind of watch you want to buy,Stimuli/39A1.jpg,Stimuli/39A2.jpg,Stimuli/39A3.jpg,Stimuli/39B1.jpg,Stimuli/39B2.jpg,Stimuli/39B3.jpg,Stimuli/39C1.jpg,Stimuli/39C2.jpg,Stimuli/39C3.jpg,,,,,0,3,3,39,,,,,,,,527.1986397000001,None,528.1986610999993,None,534.1986925000019,None,"[0.066, -0.395]","[0.306, 0.255]","[-0.377, 0.138]","[0.304, -0.26]","[0.07, 0.393]","[-0.378, -0.136]","[-0.203, -0.347]","[0.399, -0.003]","[-0.2, 0.346]",,10.872001400002773,19.387174600004073,26.07047020000391,"[0.24444444444444444, 0.10925925925925926, 0.3592592592592593]","[0.19814814814814816, 0.3537037037037037, 0.05925925925925926]","[1, 1, 1]","[0, 0, 0]","[0, 0, 0]","[10.860764500001096, 19.376448800001526, 26.059527500001423]",0.009923800003889482,26.069313700001658,['A2'],['B2'],['C2'],['blue'],['yellow'],['salmon'],561.9310272000002,None,8.0,3.0975691999992705,561.9310272000002,None,572.4142095000025,None,7.0,2.5816627999993216,565.1309146000021,None,2.0,4.331779000000097,569.4309613000005,None,9.0,2.914911399999255,<function functionImportanceC at 0x0000015B03B49730>,<function functionImportanceB at 0x0000015B2F5431E0>,<function functionImportanceA at 0x0000015B42A4D488>,,,2.0,5.031126600002608,5.0,2.5816627999993216,2.0,4.3977766999996675,<function functiondiffB at 0x0000015B03B49AE8>,<function functiondiffA at 0x0000015B03B49158>,<function functiondiffC at 0x0000015B03B49048>,,,,,535.3859491000003,579.9971523000022,None,574.9474551000021,None,584.4138739000009,None,20,001,2022_Jul_19_1456,2leo,2021.2.3,59.99304080709298,
3,1,Plan how to study for an exam,Stimuli/1A1.jpg,Stimuli/1A2.jpg,Stimuli/1A3.jpg,Stimuli/1B1.jpg,Stimuli/1B2.jpg,Stimuli/1B3.jpg,Stimuli/1C1.jpg,Stimuli/1C2.jpg,Stimuli/1C3.jpg,,,,,0,4,4,1,,,,,,,,586.0971912999994,None,587.0969117000022,None,593.0971625999991,None,"[-0.378, -0.136]","[0.07, 0.393]","[0.304, -0.26]","[-0.377, 0.138]","[0.306, 0.255]","[0.066, -0.395]","[-0.2, 0.346]","[0.399, -0.003]","[-0.203, -0.347]",,23.4547155500004,17.822343849999015,8.922615849998692,"[-0.16296296296296298, 0.040740740740740744, -0.35648148148148145]","[0.2712962962962963, -0.3287037037037037, -0.1638888888888889]","[1, 1, 1]","[0, 0, 0]","[0, 0, 0]","[8.919211699998414, 17.8190145999979, 23.451826799999253]",0.0024727499985601753,23.45403294999778,['A1'],['B3'],['C1'],['salmon'],['yellow'],['blue'],618.1459689000003,None,7.0,2.7638710999999603,618.1459689000003,None,620.979421,None,7.0,11.664040799998475,632.6291332000001,None,5.0,2.8650259000023652,635.5456306000015,None,7.0,4.381670700000541,<function functionImportanceA at 0x0000015B42A4D0D0>,<function functionImportanceC at 0x0000015B03B49400>,<function functionImportanceB at 0x0000015B03B49C80>,,,3.0,3.481250999997428,4.0,11.664040799998475,6.0,2.798105100002431,<function functiondiffC at 0x0000015B03B49488>,<function functiondiffB at 0x0000015B03B49F28>,<function functiondiffA at 0x0000015B03B49D08>,,,,,594.2085407000013,650.3787510000002,None,646.8620623000024,None,639.8955223000012,None,20,001,2022_Jul_19_1456,2leo,2021.2.3,59.99304080709298,
3,34,Plan what car you want to buy,Stimuli/34A1.jpg,Stimuli/34A2.jpg,Stimuli/34A3.jpg,Stimuli/34B1.jpg,Stimuli/34B2.jpg,Stimuli/34B3.jpg,Stimuli/34C1.jpg,Stimuli/34C2.jpg,Stimuli/34C3.jpg,,,,,0,5,5,34,,,,,,,,652.6950381999995,None,653.6952270000002,None,659.6951633999997,None,"[-0.203, -0.347]","[-0.2, 0.346]","[0.399, -0.003]","[0.066, -0.395]","[-0.377, 0.138]","[0.306, 0.255]","[0.304, -0.26]","[-0.378, -0.136]","[0.07, 0.393]",,15.570651549995091,23.52056664999691,21.204515449997416,"[-0.1648148148148148, -0.3388888888888889, -0.006481481481481481]","[-0.37037037037037035, -0.19074074074074074, -0.3055555555555556]","[1, 1, 1]","[0, 0, 0]","[0, 0, 0]","[15.562968000002002, 21.196158599999762, 23.51263100000142]",0.00724804999481421,23.51961404999747,['A1'],['B1'],['C2'],['salmon'],['yellow'],['blue'],686.7940020000024,None,6.0,3.7468430000008084,686.7940020000024,None,697.4778767999996,None,9.0,3.8986343999968085,690.6109501999999,None,3.0,5.847629699997924,701.3439313000017,None,5.0,3.5485845999974117,<function functionImportanceC at 0x0000015B0034D6A8>,<function functionImportanceA at 0x0000015B03B49378>,<function functionImportanceB at 0x0000015B0034D268>,,,2.0,3.464371400001255,6.0,3.8986343999968085,3.0,7.031226199997036,<function functiondiffC at 0x0000015B0034D598>,<function functiondiffA at 0x0000015B03B49510>,<function functiondiffB at 0x0000015B03B49D90>,,,,,662.8131371000018,711.2099855000015,None,718.1765059999998,None,703.927203700001,None,20,001,2022_Jul_19_1456,2leo,2021.2.3,59.99304080709298,
3,42,Plan how to draw a painting ,Stimuli/42A1.jpg,Stimuli/42A2.jpg,Stimuli/42A3.jpg,Stimuli/42B1.jpg,Stimuli/42B2.jpg,Stimuli/42B3.jpg,Stimuli/42C1.jpg,Stimuli/42C2.jpg,Stimuli/42C3.jpg,,,,,0,6,6,42,,,,,,,,720.909806300002,None,721.9100074000016,None,727.9099416999998,None,"[0.066, -0.395]","[-0.377, 0.138]","[0.306, 0.255]","[0.304, -0.26]","[-0.378, -0.136]","[0.07, 0.393]","[-0.203, -0.347]","[-0.2, 0.346]","[0.399, -0.003]",,19.559676149998268,22.49294435000047,21.293257249999442,"[0.2777777777777778, 0.3296296296296296, 0.32222222222222224]","[0.23703703703703705, 0.046296296296296294, -0.2175925925925926]","[1, 1, 1]","[0, 0, 0]","[0, 0, 0]","[19.554589600000327, 21.287714699999924, 22.48779459999787]",0.004450349999387981,22.49219274999996,['A3'],['B1'],['C3'],['blue'],['yellow'],['salmon'],752.1923281999989,None,9.0,3.2806337000001804,752.1923281999989,None,755.7257766000002,None,8.0,6.51470640000116,764.9754795000008,None,5.0,4.6317655999991985,762.0922391000022,None,8.0,2.881683300001896,<function functionImportanceA at 0x0000015B0034D9D8>,<function functionImportanceB at 0x0000015B0034DAE8>,<function functionImportanceC at 0x0000015B0034D378>,,,3.0,2.831175600000279,6.0,6.51470640000116,2.0,4.280998700000055,<function functiondiffA at 0x0000015B0034DB70>,<function functiondiffB at 0x0000015B0034DBF8>,<function functiondiffC at 0x0000015B0034DC80>,,,,,729.2195042000021,769.6254248000005,None,773.8751673000006,None,776.741779,None,20,001,2022_Jul_19_1456,2leo,2021.2.3,59.99304080709298,
3,26,Plan how to wash one round of your laundry ,Stimuli/26A1.jpg,Stimuli/26A2.jpg,Stimuli/26A3.jpg,Stimuli/26B1.jpg,Stimuli/26B2.jpg,Stimuli/26B3.jpg,Stimuli/26C1.jpg,Stimuli/26C2.jpg,Stimuli/26C3.jpg,,,,,0,7,7,26,,,,,,,,781.2581675000001,None,782.2581968000013,None,788.2581634000016,None,"[-0.203, -0.347]","[0.399, -0.003]","[-0.2, 0.346]","[0.066, -0.395]","[0.306, 0.255]","[-0.377, 0.138]","[0.304, -0.26]","[0.07, 0.393]","[-0.378, -0.136]",,34.618450450001546,30.06874814999901,24.36878594999871,"[-0.36574074074074076, -0.32685185185185184, 0.36574074074074076]","[-0.16944444444444445, 0.11481481481481481, 0.04351851851851852]","[1, 1, 1]","[0, 0, 0]","[0, 0, 0]","[24.358488300000317, 30.058671499999036, 34.608724300000176]",0.009210749998601386,34.61756945000161,['A2'],['B3'],['C3'],['blue'],['yellow'],['salmon'],824.4903212999998,None,6.0,3.1468196000023454,824.4903212999998,None,836.6067738999991,None,7.0,7.131612699999096,832.9904016,None,7.0,3.598366599999281,827.707147699999,None,7.0,5.2810357000016666,<function functionImportanceB at 0x0000015B03B49EA0>,<function functionImportanceC at 0x0000015B0034DA60>,<function functionImportanceA at 0x0000015B03B49620>,,,1.0,3.414959400000953,1.0,7.131612699999096,4.0,4.197864500001742,<function functiondiffA at 0x0000015B0034D158>,<function functiondiffC at 0x0000015B0034DE18>,<function functiondiffB at 0x0000015B0034DF28>,,,,,789.3971724000003,843.7398066000023,None,851.5898536999994,None,847.9564881000006,None,20,001,2022_Jul_19_1456,2leo,2021.2.3,59.99304080709298,
3,44,Plan a party at your place,Stimuli/44A1.jpg,Stimuli/44A2.jpg,Stimuli/44A3.jpg,Stimuli/44B1.jpg,Stimuli/44B2.jpg,Stimuli/44B3.jpg,Stimuli/44C1.jpg,Stimuli/44C2.jpg,Stimuli/44C3.jpg,,,,,0,8,8,44,,,,,,,,854.5396318999992,None,855.5398378999998,None,861.5395515000018,None,"[-0.2, 0.346]","[-0.203, -0.347]","[0.399, -0.003]","[-0.377, 0.138]","[0.066, -0.395]","[0.306, 0.255]","[-0.378, -0.136]","[0.304, -0.26]","[0.07, 0.393]",,33.83643705000213,24.85378595000293,27.787052550003864,"[0.037037037037037035, 0.075, 0.4388888888888889]","[-0.3611111111111111, 0.31574074074074077, -0.03425925925925926]","[1, 1, 1]","[0, 0, 0]","[0, 0, 0]","[24.851209799999197, 27.784307400001126, 33.834194499999285]",0.001598250000824919,33.83578495000256,['A3'],['B2'],['C3'],['blue'],['salmon'],['yellow'],897.0048738000005,None,6.0,4.563794199999393,897.0048738000005,None,908.821356299999,None,7.0,4.048306500000763,901.6383812000022,None,3.0,7.180673200000456,912.904598000001,None,8.0,7.398673799998505,<function functionImportanceC at 0x0000015B03B49268>,<function functionImportanceA at 0x0000015B0034D400>,<function functionImportanceB at 0x0000015B0034D840>,,,2.0,2.6312285000021802,2.0,4.048306500000763,2.0,2.8143759000013233,<function functiondiffC at 0x0000015B0034D488>,<function functiondiffA at 0x0000015B0034DD08>,<function functiondiffB at 0x0000015B0034D1E0>,,,,,862.6850956000017,924.6376224000014,None,927.4876518000019,None,920.2878555999996,None,20,001,2022_Jul_19_1456,2leo,2021.2.3,59.99304080709298,
3,11,Plan a hike in nature on a free day,Stimuli/11A1.jpg,Stimuli/11A2.jpg,Stimuli/11A3.jpg,Stimuli/11B1.jpg,Stimuli/11B2.jpg,Stimuli/11B3.jpg,Stimuli/11C1.jpg,Stimuli/11C2.jpg,Stimuli/11C3.jpg,,,,,0,9,9,11,,,,,,,,929.6206392999993,None,930.6207676000013,None,936.6206779999993,None,"[-0.2, 0.346]","[0.399, -0.003]","[-0.203, -0.347]","[-0.377, 0.138]","[0.306, 0.255]","[0.066, -0.395]","[-0.378, -0.136]","[0.07, 0.393]","[0.304, -0.26]",,18.00095539999893,20.251543199996377,11.701898299997993,"[0.01574074074074074, 0.412962962962963, 0.3592592592592593]","[0.3814814814814815, -0.037037037037037035, 0.19537037037037036]","[1, 1, 1]","[0, 0, 0]","[0, 0, 0]","[11.692140300001483, 17.991679999999178, 20.242023300001165]",0.008743499998672633,20.250485199998366,['A2'],['B2'],['C2'],['salmon'],['yellow'],['blue'],958.5032523000009,None,8.0,3.7298327999997127,958.5032523000009,None,962.3032865000023,None,5.0,4.914445200000046,972.7363506000002,None,1.0,9.815126600002259,967.2365207000003,None,7.0,5.481565900001442,<function functionImportanceA at 0x0000015B0034D0D0>,<function functionImportanceB at 0x0000015B0034DEA0>,<function functionImportanceC at 0x0000015B42A4D840>,,,1.0,5.431235799998831,1.0,4.914445200000046,7.0,3.0314466999989236,<function functiondiffB at 0x0000015B0034D8C8>,<function functiondiffC at 0x0000015B00902158>,<function functiondiffA at 0x0000015B0034D730>,,,,,937.7760176000011,990.7192099000022,None,982.5361201000014,None,987.9859064000011,None,20,001,2022_Jul_19_1456,2leo,2021.2.3,59.99304080709298,
3,15,Plan your own Pasta for lunch,Stimuli/15A1.jpg,Stimuli/15A2.jpg,Stimuli/15A3.jpg,Stimuli/15B1.jpg,Stimuli/15B2.jpg,Stimuli/15B3.jpg,Stimuli/15C1.jpg,Stimuli/15C2.jpg,Stimuli/15C3.jpg,,,,,0,10,10,15,,,,,,,,993.2689257999991,None,994.2691673000008,None,1000.2690700000021,None,"[-0.203, -0.347]","[-0.2, 0.346]","[0.399, -0.003]","[0.066, -0.395]","[-0.377, 0.138]","[0.306, 0.255]","[0.304, -0.26]","[-0.378, -0.136]","[0.07, 0.393]",,12.193192449998605,22.07661874999758,24.02690674999758,"[-0.14444444444444443, -0.3527777777777778, 0.001851851851851852]","[-0.28703703703703703, 0.10740740740740741, 0.32314814814814813]","[1, 1, 1]","[0, 0, 0]","[0, 0, 0]","[12.189133100000618, 22.072187400000985, 24.02215140000044]",0.0036521499969239812,24.025749649998033,['A1'],['B2'],['C3'],['salmon'],['blue'],['yellow'],1026.6846824000022,None,9.0,2.5137519000018074,1026.6846824000022,None,1033.1180086000022,None,7.0,3.098388700000214,1029.9680829999998,None,9.0,3.764606199998525,1036.151308299999,None,9.0,2.531552100001136,<function functionImportanceC at 0x0000015B00902378>,<function functionImportanceA at 0x0000015B0034D048>,<function functionImportanceB at 0x0000015B00902620>,,,1.0,2.3979644999999437,1.0,3.098388700000214,1.0,2.964550799999415,<function functiondiffA at 0x0000015B42A4D510>,<function functiondiffB at 0x0000015B0034DD90>,<function functiondiffC at 0x0000015B0034D7B8>,,,,,1002.193411799999,1038.6844294000002,None,1041.6677643000003,None,1044.2177357,None,20,001,2022_Jul_19_1456,2leo,2021.2.3,59.99304080709298,
3,22,Plan a beach day with your friends,Stimuli/22A1.jpg,Stimuli/22A2.jpg,Stimuli/22A3.jpg,Stimuli/22B1.jpg,Stimuli/22B2.jpg,Stimuli/22B3.jpg,Stimuli/22C1.jpg,Stimuli/22C2.jpg,Stimuli/22C3.jpg,,,,,0,11,11,22,,,,,,,,1045.9674750000013,None,1046.9673785000014,None,1052.967485199999,None,"[0.304, -0.26]","[0.07, 0.393]","[-0.378, -0.136]","[0.066, -0.395]","[0.306, 0.255]","[-0.377, 0.138]","[-0.203, -0.347]","[0.399, -0.003]","[-0.2, 0.346]",,22.48969589999615,21.72327419999783,23.240150099994935,"[-0.4324074074074074, -0.39351851851851855, 0.42407407407407405]","[0.14537037037037037, -0.13703703703703704, -0.018518518518518517]","[1, 1, 1]","[0, 0, 0]","[0, 0, 0]","[21.71933170000193, 22.486030399999436, 23.236061300001893]",0.003018099996552337,23.239073299995653,['A3'],['B3'],['C2'],['salmon'],['yellow'],['blue'],1077.8498304000022,None,8.0,2.8138536999977077,1077.8498304000022,None,1094.2495950000011,None,2.0,4.465048999998544,1089.4497875000015,None,4.0,4.815402399999584,1080.7165929000003,None,8.0,8.664185100002214,<function functionImportanceB at 0x0000015B00902F28>,<function functionImportanceC at 0x0000015B009028C8>,<function functionImportanceA at 0x0000015B00902BF8>,,,3.0,5.51461289999861,1.0,4.465048999998544,5.0,3.91476369999873,<function functiondiffB at 0x0000015B00902840>,<function functiondiffA at 0x0000015B00902D90>,<function functiondiffC at 0x0000015B00902510>,,,,,1054.128294099999,1104.232543099999,None,1098.6994072000016,None,1108.1658906000011,None,20,001,2022_Jul_19_1456,2leo,2021.2.3,59.99304080709298,
3,17,Plan a day in Barcelona with a friend who is new to the city,Stimuli/17A1.jpg,Stimuli/17A2.jpg,Stimuli/17A3.jpg,Stimuli/17B1.jpg,Stimuli/17B2.jpg,Stimuli/17B3.jpg,Stimuli/17C1.jpg,Stimuli/17C2.jpg,Stimuli/17C3.jpg,,,,,0,12,12,17,,,,,,,,1112.665340800002,None,1113.6655953000009,None,1119.6655987000013,None,"[0.306, 0.255]","[-0.377, 0.138]","[0.066, -0.395]","[0.07, 0.393]","[-0.378, -0.136]","[0.304, -0.26]","[0.399, -0.003]","[-0.2, 0.346]","[-0.203, -0.347]",,23.69821645000411,14.43176085000232,18.465475950004475,"[-0.3277777777777778, -0.1814814814814815, 0.016666666666666666]","[-0.08055555555555556, 0.27314814814814814, -0.33796296296296297]","[1, 1, 1]","[0, 0, 0]","[0, 0, 0]","[14.423765600000479, 18.45725300000049, 23.690389300001698]",0.007225050005217781,23.697246350002388,['A3'],['B2'],['C2'],['salmon'],['blue'],['yellow'],1145.0147244,None,7.0,3.080046700000821,1145.0147244,None,1156.1811961999992,None,8.0,9.33132779999869,1148.1648666,None,9.0,4.447881200001575,1152.6313120000013,None,9.0,3.4987528000019665,<function functionImportanceC at 0x0000015B00902A60>,<function functionImportanceB at 0x0000015B009026A8>,<function functionImportanceA at 0x0000015B0034D2F0>,,,1.0,2.7310982000017248,2.0,9.33132779999869,8.0,5.26437789999909,<function functiondiffC at 0x0000015B00902D08>,<function functiondiffA at 0x0000015B03B499D8>,<function functiondiffB at 0x0000015B00902048>,,,,,1120.8397331000015,1171.1473890000016,None,1176.4307775000016,None,1165.464181700001,None,20,001,2022_Jul_19_1456,2leo,2021.2.3,59.99304080709298,
3,40,Plan to see a sports event ,Stimuli/40A1.jpg,Stimuli/40A2.jpg,Stimuli/40A3.jpg,Stimuli/40B1.jpg,Stimuli/40B2.jpg,Stimuli/40B3.jpg,Stimuli/40C1.jpg,Stimuli/40C2.jpg,Stimuli/40C3.jpg,,,,,0,13,13,40,,,,,,,,1178.6801324000007,None,1179.6807775000016,None,1185.6804988000004,None,"[-0.2, 0.346]","[0.399, -0.003]","[-0.203, -0.347]","[-0.377, 0.138]","[0.306, 0.255]","[0.066, -0.395]","[-0.378, -0.136]","[0.07, 0.393]","[0.304, -0.26]",,24.30150119999962,6.485617199999979,17.268904000000475,"[0.2740740740740741, 0.09722222222222222, 0.33240740740740743]","[0.26944444444444443, 0.3351851851851852, 0.07037037037037037]","[1, 1, 1]","[0, 0, 0]","[0, 0, 0]","[6.484311700001854, 17.26739660000021, 24.300427900001523]",0.0004951999981130939,24.300850299998274,['A2'],['B2'],['C2'],['blue'],['yellow'],['salmon'],1211.7961531,None,7.0,3.5799815000027593,1211.7961531,None,1225.8127056000012,None,8.0,2.4151197999999567,1215.446278200001,None,1.0,4.59776150000107,1220.1961775000018,None,9.0,5.714967200001411,<function functionImportanceC at 0x0000015B00D8B7B8>,<function functionImportanceB at 0x0000015B0034D620>,<function functionImportanceA at 0x0000015B0034D510>,,,1.0,4.697649000001547,6.0,2.4151197999999567,4.0,6.914334500001132,<function functiondiffA at 0x0000015B00902B70>,<function functiondiffB at 0x0000015B009029D8>,<function functiondiffC at 0x0000015B00902C80>,,,,,1187.0121739000024,1228.1959938,None,1235.1623923000006,None,1239.8456361999997,None,20,001,2022_Jul_19_1456,2leo,2021.2.3,59.99304080709298,
3,23,Plan a city trip,Stimuli/23A1.jpg,Stimuli/23A2.jpg,Stimuli/23A3.jpg,Stimuli/23B1.jpg,Stimuli/23B2.jpg,Stimuli/23B3.jpg,Stimuli/23C1.jpg,Stimuli/23C2.jpg,Stimuli/23C3.jpg,,,,,0,14,14,23,,,,,,,,1244.661867499999,None,1245.662030800002,None,1251.6618051000005,None,"[0.306, 0.255]","[0.066, -0.395]","[-0.377, 0.138]","[0.07, 0.393]","[0.304, -0.26]","[-0.378, -0.136]","[0.399, -0.003]","[-0.203, -0.347]","[-0.2, 0.346]",,20.576467849998153,19.610006349998002,21.47701975000018,"[0.24444444444444444, 0.12777777777777777, -0.1638888888888889]","[-0.275, -0.35185185185185186, -0.35]","[1, 1, 1]","[0, 0, 0]","[0, 0, 0]","[19.596162300000287, 20.56289729999844, 21.46295420000024]",0.013055449999228586,21.47582704999877,['A2'],['B2'],['C2'],['blue'],['salmon'],['yellow'],1274.7776956000016,None,9.0,2.197186800000054,1274.7776956000016,None,1285.9942124000008,None,8.0,4.765001200001279,1277.079344400001,None,2.0,6.247571299998526,1283.311086400001,None,9.0,2.68159039999955,<function functionImportanceC at 0x0000015B00D8B488>,<function functionImportanceB at 0x0000015B00D8B598>,<function functionImportanceA at 0x0000015B00902950>,,,2.0,2.7647662999988825,1.0,4.765001200001279,5.0,2.964408400002867,<function functiondiffC at 0x0000015B00902598>,<function functiondiffA at 0x0000015B0034D950>,<function functiondiffB at 0x0000015B009022F0>,,,,,1252.8294434000018,1294.0274820000013,None,1297.010771600002,None,1290.760856500001,None,20,001,2022_Jul_19_1456,2leo,2021.2.3,59.99304080709298,
3,27,Plan what festival to visit with your friends,Stimuli/27A1.jpg,Stimuli/27A2.jpg,Stimuli/27A3.jpg,Stimuli/27B1.jpg,Stimuli/27B2.jpg,Stimuli/27B3.jpg,Stimuli/27C1.jpg,Stimuli/27C2.jpg,Stimuli/27C3.jpg,,,,,0,15,15,27,,,,,,,,1317.6267656000018,None,1318.6267563000001,None,1324.6266547000014,None,"[0.07, 0.393]","[-0.378, -0.136]","[0.304, -0.26]","[0.306, 0.255]","[-0.377, 0.138]","[0.066, -0.395]","[0.399, -0.003]","[-0.2, 0.346]","[-0.203, -0.347]",,23.058152149998932,23.875159549999807,21.991813450000336,"[0.3453703703703704, 0.05925925925925926, -0.34629629629629627]","[0.004629629629629629, 0.3333333333333333, 0.14722222222222223]","[1, 1, 1]","[0, 0, 0]","[0, 0, 0]","[21.97850500000277, 23.04541440000321, 23.862046700000064]",0.012338450000243029,23.874160150000534,['A1'],['B2'],['C1'],['yellow'],['blue'],['salmon'],1350.1088920000002,None,8.0,1.7303350000001956,1350.1088920000002,None,1355.4421021000016,None,8.0,3.1485438000017894,1351.9090671000013,None,8.0,3.531632599999284,1358.6256324999995,None,5.0,2.6151105999997526,<function functionImportanceC at 0x0000015B00D8B378>,<function functionImportanceA at 0x0000015B00D8BAE8>,<function functionImportanceB at 0x0000015B00D8BBF8>,,,1.0,3.097620399999869,5.0,3.1485438000017894,1.0,4.347794699999213,<function functiondiffA at 0x0000015B00902EA0>,<function functiondiffB at 0x0000015B00D8B400>,<function functiondiffC at 0x0000015B00D8B048>,,,,,1325.763982299999,1361.2252690999994,None,1365.592158200001,None,1368.7084914000006,None,20,001,2022_Jul_19_1456,2leo,2021.2.3,59.99304080709298,
3,12,Plan the ingredients to mix yourself a cocktail,Stimuli/12A1.jpg,Stimuli/12A2.jpg,Stimuli/12A3.jpg,Stimuli/12B1.jpg,Stimuli/12B2.jpg,Stimuli/12B3.jpg,Stimuli/12C1.jpg,Stimuli/12C2.jpg,Stimuli/12C3.jpg,,,,,0,16,16,12,,,,,,,,1370.6748488000012,None,1371.6752584999995,None,1377.6751265999992,None,"[0.066, -0.395]","[0.306, 0.255]","[-0.377, 0.138]","[-0.203, -0.347]","[0.399, -0.003]","[-0.2, 0.346]","[0.304, -0.26]","[0.07, 0.393]","[-0.378, -0.136]",,41.8160235999967,36.616561199996795,41.03333809999822,"[0.4046296296296296, 0.28055555555555556, 0.1398148148148148]","[0.02962962962962963, -0.2601851851851852, -0.3611111111111111]","[1, 1, 1]","[0, 0, 0]","[0, 0, 0]","[36.60757569999987, 41.02417950000017, 41.807401500002015]",0.008190999997168547,41.81527879999703,['A1'],['B2'],['C1'],['yellow'],['salmon'],['blue'],1421.1237294999992,None,9.0,2.2137433999996574,1421.1237294999992,None,1429.7734874000016,None,8.0,2.448346799999854,1423.4070802999995,None,9.0,3.431176599999162,1426.8567533000023,None,5.0,2.882799899998645,<function functionImportanceC at 0x0000015B009021E0>,<function functionImportanceB at 0x0000015B00902400>,<function functionImportanceA at 0x0000015B03B49E18>,,,6.0,2.514898000001267,1.0,2.448346799999854,1.0,3.29785880000054,<function functiondiffA at 0x0000015B00D8BD08>,<function functiondiffB at 0x0000015B00D8BD90>,<function functiondiffC at 0x0000015B00D8B620>,,,,,1378.830907200001,1432.1903361000004,None,1435.5067390000004,None,1438.0399524999993,None,20,001,2022_Jul_19_1456,2leo,2021.2.3,59.99304080709298,
3,35,Plan how you want to do your grocery shopping ,Stimuli/35A1.jpg,Stimuli/35A2.jpg,Stimuli/35A3.jpg,Stimuli/35B1.jpg,Stimuli/35B2.jpg,Stimuli/35B3.jpg,Stimuli/35C1.jpg,Stimuli/35C2.jpg,Stimuli/35C3.jpg,,,,,0,17,17,35,,,,,,,,1439.3064429000005,None,1440.306612100001,None,1446.3065687000017,None,"[0.07, 0.393]","[-0.378, -0.136]","[0.304, -0.26]","[0.399, -0.003]","[-0.2, 0.346]","[-0.203, -0.347]","[0.306, 0.255]","[-0.377, 0.138]","[0.066, -0.395]",,15.831439150002552,31.94676035000157,14.848886450003192,"[-0.39444444444444443, -0.38425925925925924, -0.18796296296296297]","[0.12037037037037036, -0.11944444444444445, -0.37777777777777777]","[1, 1, 1]","[0, 0, 0]","[0, 0, 0]","[14.833204300000943, 15.816248400002223, 31.931236700002046]",0.014676950002467493,31.9457387500006,['A2'],['B3'],['C2'],['salmon'],['blue'],['yellow'],1479.9553096000018,None,5.0,2.796070199998212,1479.9553096000018,None,1490.2553249000011,None,7.0,4.248313199997938,1482.8219691000013,None,7.0,4.24792140000136,1487.1553951999995,None,9.0,3.131926199999725,<function functionImportanceC at 0x0000015B012666A8>,<function functionImportanceB at 0x0000015B012667B8>,<function functionImportanceA at 0x0000015B00D8B268>,,,9.0,2.714421599997877,1.0,4.248313199997938,1.0,2.6982687000017904,<function functiondiffB at 0x0000015B00D8B158>,<function functiondiffC at 0x0000015B00902488>,<function functiondiffA at 0x0000015B00D8B510>,,,,,1447.5400678000005,1499.8717111000005,None,1494.488260500002,None,1497.205108000002,None,20,001,2022_Jul_19_1456,2leo,2021.2.3,59.99304080709298,
3,6,Plan your wedding,Stimuli/6A1.jpg,Stimuli/6A2.jpg,Stimuli/6A3.jpg,Stimuli/6B1.jpg,Stimuli/6B2.jpg,Stimuli/6B3.jpg,Stimuli/6C1.jpg,Stimuli/6C2.jpg,Stimuli/6C3.jpg,,,,,0,18,18,6,,,,,,,,1502.087843199999,None,1503.088296500002,None,1509.0881465999992,None,"[-0.203, -0.347]","[-0.2, 0.346]","[0.399, -0.003]","[0.304, -0.26]","[-0.378, -0.136]","[0.07, 0.393]","[0.066, -0.395]","[-0.377, 0.138]","[0.306, 0.255]",,30.67556299998978,27.461524599992117,18.27660749999268,"[0.27037037037037037, -0.3277777777777778, -0.225]","[0.17685185185185184, -0.1425925925925926, 0.2722222222222222]","[1, 1, 1]","[0, 0, 0]","[0, 0, 0]","[18.26021640000181, 27.443769299999985, 30.659760300000926]",0.015307599991501775,30.674793599991972,['A2'],['B2'],['C3'],['yellow'],['salmon'],['blue'],1545.3701738000018,None,6.0,3.0472660999985237,1545.3701738000018,None,1549.638846400001,None,9.0,4.398339399998804,1558.4365289000016,None,8.0,3.831847800000105,1554.5535751999996,None,5.0,4.315977599999314,<function functionImportanceA at 0x0000015B009027B8>,<function functionImportanceB at 0x0000015B01266730>,<function functionImportanceC at 0x0000015B012660D0>,,,3.0,3.364258699999482,1.0,4.398339399998804,8.0,2.698162600001524,<function functiondiffC at 0x0000015B01266620>,<function functiondiffB at 0x0000015B00D8BB70>,<function functiondiffA at 0x0000015B00902730>,,,,,1514.2438879000001,1568.1864110000024,None,1564.8905325000014,None,1561.4365806999995,None,20,001,2022_Jul_19_1456,2leo,2021.2.3,59.99304080709298,
3,43,Plan your dream house,Stimuli/43A1.jpg,Stimuli/43A2.jpg,Stimuli/43A3.jpg,Stimuli/43B1.jpg,Stimuli/43B2.jpg,Stimuli/43B3.jpg,Stimuli/43C1.jpg,Stimuli/43C2.jpg,Stimuli/43C3.jpg,,,,,0,19,19,43,,,,,,,,1570.1194475000011,None,1571.1196383999995,None,1577.1194133999998,None,"[-0.378, -0.136]","[0.07, 0.393]","[0.304, -0.26]","[-0.377, 0.138]","[0.306, 0.255]","[0.066, -0.395]","[-0.2, 0.346]","[0.399, -0.003]","[-0.203, -0.347]",,24.065201150006033,15.382695450003666,6.69985285000439,"[-0.175, 0.006481481481481481, -0.37592592592592594]","[-0.3398148148148148, -0.375, -0.21203703703703702]","[1, 1, 1]","[0, 0, 0]","[0, 0, 0]","[6.682921900002839, 15.366021199999523, 24.048956200000248]",0.01582415000302717,24.064778250005475,['A1'],['B3'],['C3'],['salmon'],['blue'],['yellow'],1602.8519788000012,None,5.0,2.6470771999993303,1602.8519788000012,None,1609.2518922000017,None,6.0,4.181815899999492,1605.5854733000015,None,9.0,3.597623300000123,1613.4183264999992,None,5.0,3.0988156000021263,<function functionImportanceC at 0x0000015B01266048>,<function functionImportanceA at 0x0000015B01266BF8>,<function functionImportanceB at 0x0000015B01266400>,,,7.0,2.1977771000019857,1.0,4.181815899999492,7.0,2.531136700003117,<function functiondiffC at 0x0000015B01266598>,<function functiondiffA at 0x0000015B01266488>,<function functiondiffB at 0x0000015B01266E18>,,,,,1578.3167491000022,1620.1350131,None,1622.6849382,None,1616.468265399999,None,20,001,2022_Jul_19_1456,2leo,2021.2.3,59.99304080709298,
3,28,Plan a one-week camping trip in Spain,Stimuli/28A1.jpg,Stimuli/28A2.jpg,Stimuli/28A3.jpg,Stimuli/28B1.jpg,Stimuli/28B2.jpg,Stimuli/28B3.jpg,Stimuli/28C1.jpg,Stimuli/28C2.jpg,Stimuli/28C3.jpg,,,,,0,20,20,28,,,,,,,,1624.4013006999994,None,1625.4014922999995,None,1631.4014363000024,None,"[-0.378, -0.136]","[0.304, -0.26]","[0.07, 0.393]","[-0.377, 0.138]","[0.066, -0.395]","[0.306, 0.255]","[-0.2, 0.346]","[-0.203, -0.347]","[0.399, -0.003]",,19.783988650000538,27.16786085000058,32.28430775000015,"[0.03611111111111111, 0.2361111111111111, 0.23981481481481481, 0.43425925925925923]","[0.325, 0.15555555555555556, 0.17314814814814813, 0.011111111111111112]","[1, 1, 1, 1]","[0, 0, 0, 0]","[0, 0, 0, 0]","[19.77478560000236, 26.6082150000002, 27.158486000000266, 32.27464360000158]",0.008545149998099077,32.283186349999596,['A3'],['B3'],['C3'],['salmon'],['blue'],['yellow'],1665.3003212000003,None,7.0,2.730187199998909,1665.3003212000003,None,1675.983406700001,None,5.0,8.814842700001464,1672.8833589000023,None,3.0,3.0647188000002643,1668.1002278000014,None,8.0,4.780991299998277,<function functionImportanceB at 0x0000015B01266D08>,<function functionImportanceC at 0x0000015B01266840>,<function functionImportanceA at 0x0000015B00D8B0D0>,,,1.0,2.6482563000026857,7.0,8.814842700001464,1.0,2.0476339000015287,<function functiondiffC at 0x0000015B012662F0>,<function functiondiffB at 0x0000015B01266A60>,<function functiondiffA at 0x0000015B01266268>,,,,,1632.5408764000022,1693.2162687000018,None,1690.5497418000014,None,1684.7828756000017,None,20,001,2022_Jul_19_1456,2leo,2021.2.3,59.99304080709298,
3,4,Plan a game night at your place,Stimuli/4A1.jpg,Stimuli/4A2.jpg,Stimuli/4A3.jpg,Stimuli/4B1.jpg,Stimuli/4B2.jpg,Stimuli/4B3.jpg,Stimuli/4C1.jpg,Stimuli/4C2.jpg,Stimuli/4C3.jpg,,,,,0,21,21,4,,,,,,,,1694.7826406999993,None,1695.7829098000002,None,1701.7828654000004,None,"[0.306, 0.255]","[-0.377, 0.138]","[0.066, -0.395]","[0.399, -0.003]","[-0.2, 0.346]","[-0.203, -0.347]","[0.07, 0.393]","[-0.378, -0.136]","[0.304, -0.26]",,16.29694999999265,14.948097199991025,18.480601799994474,"[-0.1527777777777778, 0.000925925925925926, 0.25555555555555554]","[-0.32222222222222224, -0.34814814814814815, -0.32685185185185184]","[1, 1, 1]","[0, 0, 0]","[0, 0, 0]","[14.959573200001614, 16.29304790000242, 18.4761182000002]",0.0033157999932882376,18.47942279999188,['A3'],['B3'],['C3'],['yellow'],['salmon'],['blue'],1724.1319165000023,None,9.0,2.0137919999979204,1724.1319165000023,None,1737.0150039,None,2.0,2.965345399999933,1732.5847993000025,None,6.0,4.731692000001203,1726.1820058000012,None,6.0,5.064597100001265,<function functionImportanceB at 0x0000015B00D8BA60>,<function functionImportanceC at 0x0000015B01266EA0>,<function functionImportanceA at 0x0000015B00D8B950>,,,1.0,4.831104000000778,1.0,2.965345399999933,1.0,3.747944599999755,<function functiondiffA at 0x0000015B012669D8>,<function functiondiffB at 0x0000015B012668C8>,<function functiondiffC at 0x0000015B01266378>,,,,,1705.1894347000016,1739.3150520000017,None,1742.7648986999993,None,1747.9814370000022,None,20,001,2022_Jul_19_1456,2leo,2021.2.3,59.99304080709298,
3,18,Plan your Saturday night ,Stimuli/18A1.jpg,Stimuli/18A2.jpg,Stimuli/18A3.jpg,Stimuli/18B1.jpg,Stimuli/18B2.jpg,Stimuli/18B3.jpg,Stimuli/18C1.jpg,Stimuli/18C2.jpg,Stimuli/18C3.jpg,,,,,0,22,22,18,,,,,,,,1750.9475325999992,None,1751.947963300001,None,1757.9478872,None,"[0.306, 0.255]","[0.066, -0.395]","[-0.377, 0.138]","[0.399, -0.003]","[-0.203, -0.347]","[-0.2, 0.346]","[0.07, 0.393]","[0.304, -0.26]","[-0.378, -0.136]",,13.331066049999208,14.498552749999362,19.63150764999955,"[-0.3675925925925926, 0.3416666666666667, 0.35648148148148145]","[0.0787037037037037, 0.03333333333333333, -0.2462962962962963]","[1, 1, 1]","[0, 0, 0]","[0, 0, 0]","[13.315194999999221, 14.482597500002157, 19.615204699999595]",0.015278349997970508,19.630210849998548,['A3'],['B1'],['C2'],['blue'],['salmon'],['yellow'],1779.1802817999996,None,5.0,3.097222699998383,1779.1802817999996,None,1786.596967900001,None,2.0,4.43198620000112,1791.0635570000013,None,1.0,2.815252000000328,1782.3138006000008,None,7.0,4.214253399997688,<function functionImportanceB at 0x0000015B01896158>,<function functionImportanceA at 0x0000015B00D8B8C8>,<function functionImportanceC at 0x0000015B01896048>,,,8.0,2.3978171999988263,1.0,4.43198620000112,8.0,3.281056499999977,<function functiondiffC at 0x0000015B00D8B6A8>,<function functiondiffA at 0x0000015B01266F28>,<function functiondiffB at 0x0000015B00D8B1E0>,,,,,1759.0810263999992,1796.496732300002,None,1799.7798952000012,None,1793.8300855000016,None,20,001,2022_Jul_19_1456,2leo,2021.2.3,59.99304080709298,
3,8,Plan the interior of your living-room ,Stimuli/8A1.jpg,Stimuli/8A2.jpg,Stimuli/8A3.jpg,Stimuli/8B1.jpg,Stimuli/8B2.jpg,Stimuli/8B3.jpg,Stimuli/8C1.jpg,Stimuli/8C2.jpg,Stimuli/8C3.jpg,,,,,0,23,23,8,,,,,,,,1801.7127690000016,None,1802.7130933000008,None,1808.7130949999992,None,"[0.07, 0.393]","[0.304, -0.26]","[-0.378, -0.136]","[0.306, 0.255]","[0.066, -0.395]","[-0.377, 0.138]","[0.399, -0.003]","[-0.203, -0.347]","[-0.2, 0.346]",,18.83025529999213,30.78049449999162,19.480980599993927,"[0.06111111111111111, -0.13425925925925927, -0.29907407407407405]","[0.33425925925925926, 0.31666666666666665, 0.125]","[1, 1, 1]","[0, 0, 0]","[0, 0, 0]","[18.82836099999986, 19.47843809999904, 30.77817639999921]",0.0014478999910352286,30.779430499991577,['A1'],['B3'],['C3'],['blue'],['salmon'],['yellow'],1844.7617869999995,None,7.0,3.046616299998277,1844.7617869999995,None,1858.461298000002,None,9.0,2.64853889999722,1855.7114153000002,None,9.0,4.6375455999987025,1849.5953412000017,None,7.0,5.914460799998778,<function functionImportanceB at 0x0000015B01896268>,<function functionImportanceC at 0x0000015B01896B70>,<function functionImportanceA at 0x0000015B01896C80>,,,5.0,3.7145013000008476,3.0,2.64853889999722,0.0,2.78122070000245,<function functiondiffB at 0x0000015B01266510>,<function functiondiffA at 0x0000015B012661E0>,<function functiondiffC at 0x0000015B01896BF8>,,,,,1813.5158998000006,1864.8281343000017,None,1861.6449594000005,None,1868.211347200002,None,20,001,2022_Jul_19_1456,2leo,2021.2.3,59.99304080709298,
3,24,Plan your Monday morning on a workday ,Stimuli/24A1.jpg,Stimuli/24A2.jpg,Stimuli/24A3.jpg,Stimuli/24B1.jpg,Stimuli/24B2.jpg,Stimuli/24B3.jpg,Stimuli/24C1.jpg,Stimuli/24C2.jpg,Stimuli/24C3.jpg,,,,,0,24,24,24,,,,,,,,1873.4608167000006,None,1874.4612221000025,None,1880.4610592999998,None,"[0.306, 0.255]","[0.066, -0.395]","[-0.377, 0.138]","[0.399, -0.003]","[-0.203, -0.347]","[-0.2, 0.346]","[0.07, 0.393]","[0.304, -0.26]","[-0.378, -0.136]",,21.137289400001464,23.48756979999962,22.921195800001442,"[0.3425925925925926, -0.3768518518518518, -0.23148148148148148]","[0.25555555555555554, -0.15, -0.29814814814814816]","[1, 1, 1]","[0, 0, 0]","[0, 0, 0]","[21.13494179999907, 22.91813949999778, 23.484888999999384]",0.001849299998866627,23.48672290000104,['A1'],['B2'],['C3'],['blue'],['salmon'],['yellow'],1905.5935676000008,None,8.0,2.763918399999966,1905.5935676000008,None,1908.4101623999995,None,9.0,2.748173799998767,1914.993500200002,None,8.0,3.7816821000014897,1911.2268015000009,None,1.0,3.7321209000001545,<function functionImportanceA at 0x0000015B01896510>,<function functionImportanceB at 0x0000015B01896400>,<function functionImportanceC at 0x0000015B01896950>,,,8.0,2.0650869000019156,1.0,2.748173799998767,1.0,2.614353900000424,<function functiondiffC at 0x0000015B018962F0>,<function functiondiffA at 0x0000015B01896E18>,<function functiondiffB at 0x0000015B01896620>,,,,,1881.6223451000005,1921.9099179000004,None,1924.5430416000017,None,1918.7099110999989,None,20,001,2022_Jul_19_1456,2leo,2021.2.3,59.99304080709298,
3,7,Plan your Sunday breakfast ,Stimuli/7A1.jpg,Stimuli/7A2.jpg,Stimuli/7A3.jpg,Stimuli/7B1.jpg,Stimuli/7B2.jpg,Stimuli/7B3.jpg,Stimuli/7C1.jpg,Stimuli/7C2.jpg,Stimuli/7C3.jpg,,,,,0,25,25,7,,,,,,,,1926.1267709000022,None,1927.1263999000003,None,1933.1262903000024,None,"[0.304, -0.26]","[0.07, 0.393]","[-0.378, -0.136]","[-0.203, -0.347]","[0.399, -0.003]","[-0.2, 0.346]","[0.066, -0.395]","[0.306, 0.255]","[-0.377, 0.138]",,6.993228699990141,16.543049299987615,17.72656429998824,"[0.020370370370370372, -0.1388888888888889, -0.3333333333333333]","[0.337037037037037, 0.30648148148148147, 0.18703703703703703]","[1, 1, 1]","[0, 0, 0]","[0, 0, 0]","[6.978672000001097, 16.52810429999954, 17.711377200001152]",0.014045499989151722,17.72512989999086,['A2'],['B3'],['C3'],['salmon'],['yellow'],['blue'],1957.2920649000007,None,9.0,2.4467223999999987,1957.2920649000007,None,1961.5280872000003,None,8.0,5.431161299999076,1966.4416931000014,None,1.0,4.1153239000013855,1971.2751554999995,None,8.0,6.848432800001319,<function functionImportanceA at 0x0000015B018966A8>,<function functionImportanceC at 0x0000015B01896840>,<function functionImportanceB at 0x0000015B01896730>,,,1.0,3.9644339000005857,1.0,5.431161299999076,1.0,2.764613699997426,<function functiondiffC at 0x0000015B01896EA0>,<function functiondiffB at 0x0000015B018961E0>,<function functiondiffA at 0x0000015B00D8B2F0>,,,,,1939.1155313000017,1983.9079968000005,None,1980.1083264000008,None,1976.5584206000021,None,20,001,2022_Jul_19_1456,2leo,2021.2.3,59.99304080709298,
3,14,Plan your own Pizza for dinner,Stimuli/14A1.jpg,Stimuli/14A2.jpg,Stimuli/14A3.jpg,Stimuli/14B1.jpg,Stimuli/14B2.jpg,Stimuli/14B3.jpg,Stimuli/14C1.jpg,Stimuli/14C2.jpg,Stimuli/14C3.jpg,,,,,0,26,26,14,,,,,,,,1985.6909798000015,None,1986.6913440999997,None,1992.691410899999,None,"[0.066, -0.395]","[0.306, 0.255]","[-0.377, 0.138]","[0.304, -0.26]","[0.07, 0.393]","[-0.378, -0.136]","[-0.203, -0.347]","[0.399, -0.003]","[-0.2, 0.346]",,15.888810200001899,20.705534900000202,29.305416800001694,"[0.275, 0.26296296296296295, -0.1685185185185185]","[0.19166666666666668, -0.1814814814814815, -0.32407407407407407]","[1, 1, 1]","[0, 0, 0]","[0, 0, 0]","[15.885819199997059, 20.702363099997456, 29.301956799998152]",0.002476000001479406,29.304432900000393,['A2'],['B1'],['C1'],['salmon'],['yellow'],['blue'],2023.7068323000021,None,8.0,2.0466196999987005,2023.7068323000021,None,2025.8735785999997,None,7.0,4.531107200000406,2033.6067633999992,None,6.0,2.4485444000019925,2030.473656099999,None,9.0,3.1986930999992182,<function functionImportanceA at 0x0000015B01266950>,<function functionImportanceB at 0x0000015B01266C80>,<function functionImportanceC at 0x0000015B018969D8>,,,1.0,3.481035199998587,5.0,4.531107200000406,1.0,2.148005600000033,<function functiondiffB at 0x0000015B01896D08>,<function functiondiffC at 0x0000015B01896A60>,<function functiondiffA at 0x0000015B01896F28>,,,,,1993.9187514000005,2041.8397603000012,None,2036.0401041000005,None,2039.523350899999,None,20,001,2022_Jul_19_1456,2leo,2021.2.3,59.99304080709298,
3,16,Plan a delicious cake for the birthday of a friend,Stimuli/16A1.jpg,Stimuli/16A2.jpg,Stimuli/16A3.jpg,Stimuli/16B1.jpg,Stimuli/16B2.jpg,Stimuli/16B3.jpg,Stimuli/16C1.jpg,Stimuli/16C2.jpg,Stimuli/16C3.jpg,,,,,0,27,27,16,,,,,,,,2043.5060085000005,None,2044.5065056999993,None,2050.5064528000003,None,"[0.066, -0.395]","[-0.377, 0.138]","[0.306, 0.255]","[-0.203, -0.347]","[-0.2, 0.346]","[0.399, -0.003]","[0.304, -0.26]","[-0.378, -0.136]","[0.07, 0.393]",,16.13086134999321,16.8646430499939,19.13148944999557,"[-0.3712962962962963, -0.25277777777777777, -0.3824074074074074]","[0.1259259259259259, 0.34444444444444444, -0.1814814814814815]","[1, 1, 1]","[0, 0, 0]","[0, 0, 0]","[16.115458000000217, 16.84899840000071, 19.115587799999048]",0.014876749995892169,19.130285849994834,['A2'],['B2'],['C2'],['blue'],['yellow'],['salmon'],2071.5389307000005,None,5.0,2.247145300003467,2071.5389307000005,None,2080.4054892999993,None,8.0,4.082284799998888,2077.238715899999,None,2.0,3.2314010999980383,2074.0729415999995,None,7.0,3.2979383999991114,<function functionImportanceB at 0x0000015B01CBEA60>,<function functionImportanceC at 0x0000015B01CBE730>,<function functionImportanceA at 0x0000015B01266D90>,,,1.0,6.231196499997168,7.0,4.082284799998888,1.0,2.5646382000013546,<function functiondiffC at 0x0000015B01CBE158>,<function functiondiffA at 0x0000015B01896AE8>,<function functiondiffB at 0x0000015B018968C8>,,,,,2051.939205999999,2090.1719255999997,None,2092.7886394000016,None,2084.5054617000023,None,20,001,2022_Jul_19_1456,2leo,2021.2.3,59.99304080709298,
3,38,Plan how you want to go for a run,Stimuli/38A1.jpg,Stimuli/38A2.jpg,Stimuli/38A3.jpg,Stimuli/38B1.jpg,Stimuli/38B2.jpg,Stimuli/38B3.jpg,Stimuli/38C1.jpg,Stimuli/38C2.jpg,Stimuli/38C3.jpg,,,,,0,28,28,38,,,,,,,,2098.504485600002,None,2099.5050171000003,None,2105.504853800001,None,"[-0.2, 0.346]","[-0.203, -0.347]","[0.399, -0.003]","[-0.378, -0.136]","[0.304, -0.26]","[0.07, 0.393]","[-0.377, 0.138]","[0.066, -0.395]","[0.306, 0.255]",,12.899487649996445,17.18265044999498,7.950012149995018,"[0.05277777777777778, -0.17592592592592593, -0.3574074074074074]","[-0.3972222222222222, -0.362962962962963, -0.1]","[1, 1, 1]","[0, 0, 0]","[0, 0, 0]","[7.93292940000174, 12.882943600001454, 17.16593120000107]",0.016013249995012302,17.18192624999574,['A2'],['B1'],['C2'],['blue'],['yellow'],['salmon'],2124.3872966000017,None,9.0,2.346914600002492,2124.3872966000017,None,2126.8042466000006,None,7.0,4.114307899999403,2131.0206547000016,None,5.0,3.7818241999993916,2134.7373584000015,None,10.0,2.7816581999977643,<function functionImportanceA at 0x0000015B01CBE620>,<function functionImportanceC at 0x0000015B01CBE1E0>,<function functionImportanceB at 0x0000015B01CBE7B8>,,,0.0,2.7144109000000753,3.0,4.114307899999403,5.0,5.964590700001281,<function functiondiffB at 0x0000015B01CBEB70>,<function functiondiffA at 0x0000015B00D8B730>,<function functiondiffC at 0x0000015B01CBEBF8>,,,,,2106.736584000002,2140.237090300001,None,2137.503696399999,None,2146.2368854000015,None,20,001,2022_Jul_19_1456,2leo,2021.2.3,59.99304080709298,
3,30,Plan your sport work out for tomorrow,Stimuli/30A1.jpg,Stimuli/30A2.jpg,Stimuli/30A3.jpg,Stimuli/30B1.jpg,Stimuli/30B2.jpg,Stimuli/30B3.jpg,Stimuli/30C1.jpg,Stimuli/30C2.jpg,Stimuli/30C3.jpg,,,,,0,29,29,30,,,,,,,,2149.186429000001,None,2150.1866228,None,2156.1867088,None,"[0.07, 0.393]","[0.304, -0.26]","[-0.378, -0.136]","[0.399, -0.003]","[-0.203, -0.347]","[-0.2, 0.346]","[0.306, 0.255]","[0.066, -0.395]","[-0.377, 0.138]",,23.609639899998,10.343683299997792,5.927504299997963,"[-0.38333333333333336, 0.4203703703703704, 0.25277777777777777]","[0.08611111111111111, 0.03518518518518519, -0.2351851851851852]","[1, 1, 1]","[0, 0, 0]","[0, 0, 0]","[5.9132815999982995, 10.329914400001144, 23.596029699998326]",0.013080599997920217,23.609049499998946,['A2'],['B1'],['C3'],['yellow'],['blue'],['salmon'],2181.452462199999,None,5.0,2.4971310000000813,2181.452462199999,None,2190.0188003000003,None,9.0,2.1984874999980093,2187.0690109999996,None,3.0,2.931714100002864,2184.069219600002,None,3.0,3.0311882000023616,<function functionImportanceB at 0x0000015B00902268>,<function functionImportanceC at 0x0000015B00902AE8>,<function functionImportanceA at 0x0000015B00902E18>,,,1.0,2.5477919000004476,6.0,2.1984874999980093,7.0,2.33126909999919,<function functiondiffB at 0x0000015B01CBE378>,<function functiondiffA at 0x0000015B01CBEE18>,<function functiondiffC at 0x0000015B01CBE268>,,,,,2157.3718752000023,2194.7689439999995,None,2192.2189770000005,None,2197.1187221,None,20,001,2022_Jul_19_1456,2leo,2021.2.3,59.99304080709298,
3,41,Plan how you want to have dinner tonight ,Stimuli/41A1.jpg,Stimuli/41A2.jpg,Stimuli/41A3.jpg,Stimuli/41B1.jpg,Stimuli/41B2.jpg,Stimuli/41B3.jpg,Stimuli/41C1.jpg,Stimuli/41C2.jpg,Stimuli/41C3.jpg,,,,,0,30,30,41,,,,,,,,2234.234421699999,None,2235.234601700002,None,2241.2342394000007,None,"[-0.203, -0.347]","[0.399, -0.003]","[-0.2, 0.346]","[0.304, -0.26]","[0.07, 0.393]","[-0.378, -0.136]","[0.066, -0.395]","[0.306, 0.255]","[-0.377, 0.138]",,19.07834989999901,16.678574599998683,21.34562189999997,"[0.24166666666666667, -0.2490740740740741, 0.0]","[-0.18518518518518517, -0.3, -0.32314814814814813]","[1, 1, 1]","[0, 0, 0]","[0, 0, 0]","[16.66409179999755, 19.064178399999946, 21.33087439999872]",0.013761400001385482,21.344305200000235,['A1'],['B1'],['C1'],['blue'],['salmon'],['yellow'],2264.400130500002,None,6.0,3.9302249000029406,2264.400130500002,None,2273.8500743000004,None,8.0,9.298590900001727,2271.2334114000005,None,-0.0,2.748590499999409,2268.4002339,None,9.0,2.647380599999451,<function functionImportanceB at 0x0000015B01896D90>,<function functionImportanceC at 0x0000015B01CBE048>,<function functionImportanceA at 0x0000015B018960D0>,,,2.0,5.281283799999073,2.0,9.298590900001727,5.0,2.4477931000001263,<function functiondiffC at 0x0000015B01CBED90>,<function functiondiffB at 0x0000015B01CBEC80>,<function functiondiffA at 0x0000015B01CBE8C8>,,,,,2242.586166500001,2295.6328902999994,None,2290.333082699999,None,2283.1330987,None,20,001,2022_Jul_19_1456,2leo,2021.2.3,59.99304080709298,
3,32,Plan how you want to relax after a workday,Stimuli/32A1.jpg,Stimuli/32A2.jpg,Stimuli/32A3.jpg,Stimuli/32B1.jpg,Stimuli/32B2.jpg,Stimuli/32B3.jpg,Stimuli/32C1.jpg,Stimuli/32C2.jpg,Stimuli/32C3.jpg,,,,,0,31,31,32,,,,,,,,2297.5993191000016,None,2298.5994659999997,None,2304.5993463000013,None,"[0.066, -0.395]","[-0.377, 0.138]","[0.306, 0.255]","[0.304, -0.26]","[-0.378, -0.136]","[0.07, 0.393]","[-0.203, -0.347]","[-0.2, 0.346]","[0.399, -0.003]",,12.443892549999873,17.77724284999931,16.710808650001127,"[-0.33055555555555555, -0.2, 0.2611111111111111]","[0.09166666666666666, -0.3888888888888889, -0.30277777777777776]","[1, 1, 1]","[0, 0, 0]","[0, 0, 0]","[12.43265849999807, 16.71580719999838, 17.765882600000623]",0.010680150000553112,17.776306350002415,['A2'],['B1'],['C1'],['salmon'],['yellow'],['blue'],2325.8484193000004,None,9.0,2.4467675000014424,2325.8484193000004,None,2332.3484358000023,None,5.0,3.4650784000004933,2328.3651095000023,None,8.0,2.8813088000024436,2335.5156855999994,None,7.0,3.51495750000322,<function functionImportanceC at 0x0000015B01896488>,<function functionImportanceA at 0x0000015B00D8BC80>,<function functionImportanceB at 0x0000015B00D8BEA0>,,,7.0,1.89754300000277,1.0,3.4650784000004933,1.0,3.4644842999987304,<function functiondiffC at 0x0000015B01CBE488>,<function functiondiffA at 0x0000015B01CBE840>,<function functiondiffB at 0x0000015B01CBED08>,,,,,2307.614837600002,2343.931539199999,None,2347.2646736999995,None,2338.231571299999,None,20,001,2022_Jul_19_1456,2leo,2021.2.3,59.99304080709298,
3,21,Plan your sandwich for lunch,Stimuli/21A1.jpg,Stimuli/21A2.jpg,Stimuli/21A3.jpg,Stimuli/21B1.jpg,Stimuli/21B2.jpg,Stimuli/21B3.jpg,Stimuli/21C1.jpg,Stimuli/21C2.jpg,Stimuli/21C3.jpg,,,,,0,32,32,21,,,,,,,,2348.5152801000004,None,2349.5145804999993,None,2355.514442300002,None,"[0.07, 0.393]","[0.304, -0.26]","[-0.378, -0.136]","[0.399, -0.003]","[-0.203, -0.347]","[-0.2, 0.346]","[0.306, 0.255]","[0.066, -0.395]","[-0.377, 0.138]",,33.94365559999642,24.244233699995675,32.37763909999558,"[-0.2, 0.09907407407407408, -0.41203703703703703]","[0.2851851851851852, -0.3111111111111111, -0.09537037037037037]","[1, 1, 1]","[0, 0, 0]","[0, 0, 0]","[24.238127599997824, 32.371372300000075, 33.937769399999524]",0.0052538999952957965,33.94301689999702,['A3'],['B3'],['C2'],['yellow'],['blue'],['salmon'],2391.096494600002,None,5.0,2.180427100000088,2391.096494600002,None,2396.546704299999,None,8.0,2.3315129000002344,2393.346494100002,None,9.0,3.1480646999989403,2398.8797725000004,None,2.0,2.9319767999986652,<function functionImportanceC at 0x0000015B02B92158>,<function functionImportanceA at 0x0000015B00D8BF28>,<function functionImportanceB at 0x0000015B02B92048>,,,1.0,2.047935900001903,9.0,2.3315129000002344,7.0,3.0643868999977713,<function functiondiffA at 0x0000015B01CBEEA0>,<function functiondiffC at 0x0000015B01266AE8>,<function functiondiffB at 0x0000015B01CBE598>,,,,,2356.6735719999997,2401.7799226999996,None,2408.0129474000023,None,2404.8629963999992,None,20,001,2022_Jul_19_1456,2leo,2021.2.3,59.99304080709298,
3,13,Plan a romantic date this weekend,Stimuli/13A1.jpg,Stimuli/13A2.jpg,Stimuli/13A3.jpg,Stimuli/13B1.jpg,Stimuli/13B2.jpg,Stimuli/13B3.jpg,Stimuli/13C1.jpg,Stimuli/13C2.jpg,Stimuli/13C3.jpg,,,,,0,33,33,13,,,,,,,,2409.5803221999995,None,2410.5794812999993,None,2416.5794443000013,None,"[-0.377, 0.138]","[0.066, -0.395]","[0.306, 0.255]","[-0.2, 0.346]","[-0.203, -0.347]","[0.399, -0.003]","[-0.378, -0.136]","[0.304, -0.26]","[0.07, 0.393]",,13.34393049999926,23.660384200000408,12.494325200001185,"[-0.3768518518518518, -0.375, -0.14907407407407408]","[-0.17777777777777778, 0.09722222222222222, 0.3194444444444444]","[1, 1, 1]","[0, 0, 0]","[0, 0, 0]","[12.480005800000072, 13.330171699999482, 23.646361699997215]",0.013330400000995724,23.659520799999882,['A1'],['B1'],['C1'],['salmon'],['blue'],['yellow'],2441.9286083000006,None,7.0,3.947222300001158,2441.9286083000006,None,2448.7949241999995,None,7.0,4.998413600002095,2445.9618635000006,None,9.0,2.8306737999992038,2453.8617465999996,None,2.0,2.798832100001164,<function functionImportanceC at 0x0000015B02B922F0>,<function functionImportanceA at 0x0000015B02B926A8>,<function functionImportanceB at 0x0000015B02B92488>,,,6.0,4.614178100000572,1.0,4.998413600002095,1.0,3.964232499998616,<function functiondiffA at 0x0000015B01896598>,<function functiondiffB at 0x0000015B01CBE9D8>,<function functiondiffC at 0x0000015B01CBE6A8>,,,,,2417.797693200002,2456.595061600001,None,2460.594911799999,None,2465.1947949000023,None,20,001,2022_Jul_19_1456,2leo,2021.2.3,59.99304080709298,
3,2,Plan which ingredients you want to use for cooking dinner today,Stimuli/2A1.jpg,Stimuli/2A2.jpg,Stimuli/2A3.jpg,Stimuli/2B1.jpg,Stimuli/2B2.jpg,Stimuli/2B3.jpg,Stimuli/2C1.jpg,Stimuli/2C2.jpg,Stimuli/2C3.jpg,,,,,0,34,34,2,,,,,,,,2466.8622154000004,None,2467.8778047000014,None,2473.877851100002,None,"[0.066, -0.395]","[0.306, 0.255]","[-0.377, 0.138]","[-0.203, -0.347]","[0.399, -0.003]","[-0.2, 0.346]","[0.304, -0.26]","[0.07, 0.393]","[-0.378, -0.136]",,20.967228849993262,20.26658454999051,19.533314149990474,"[-0.32314814814814813, -0.22407407407407406, 0.03333333333333333]","[-0.08703703703703704, 0.28425925925925927, -0.36666666666666664]","[1, 1, 1]","[0, 0, 0]","[0, 0, 0]","[19.531384699999762, 20.26489479999873, 20.965585299996746]",0.0008008499935385771,20.965986649993283,['A1'],['B3'],['C3'],['salmon'],['yellow'],['blue'],2501.393629099999,None,8.0,1.910727800001041,2501.393629099999,None,2508.026554100001,None,5.0,3.449206699999195,2503.9603320999995,None,9.0,3.581286900000123,2513.710050400001,None,1.0,4.881737900002918,<function functionImportanceC at 0x0000015B02B92950>,<function functionImportanceA at 0x0000015B02B92B70>,<function functionImportanceB at 0x0000015B02B92BF8>,,,6.0,3.7811851000005845,1.0,3.449206699999195,2.0,4.147925799999939,<function functiondiffA at 0x0000015B02B921E0>,<function functiondiffB at 0x0000015B02B920D0>,<function functiondiffC at 0x0000015B02B92510>,,,,,2479.931988799999,2515.5934463000012,None,2520.3100257000006,None,2523.4263906000015,None,20,001,2022_Jul_19_1456,2leo,2021.2.3,59.99304080709298,
3,10,Plan a restaurant visit with your family on the weekend ,Stimuli/10A1.jpg,Stimuli/10A2.jpg,Stimuli/10A3.jpg,Stimuli/10B1.jpg,Stimuli/10B2.jpg,Stimuli/10B3.jpg,Stimuli/10C1.jpg,Stimuli/10C2.jpg,Stimuli/10C3.jpg,,,,,0,35,35,10,,,,,,,,2524.377655700002,None,2525.392869700001,None,2531.3930672999995,None,"[-0.378, -0.136]","[0.304, -0.26]","[0.07, 0.393]","[-0.377, 0.138]","[0.066, -0.395]","[0.306, 0.255]","[-0.2, 0.346]","[-0.203, -0.347]","[0.399, -0.003]",,24.131598149990168,25.91499214999203,24.949117449992627,"[0.03611111111111111, 0.41759259259259257, 0.10925925925925926]","[0.375, -0.008333333333333333, -0.30833333333333335]","[1, 1, 1]","[0, 0, 0]","[0, 0, 0]","[24.119509500000277, 24.936264500000107, 25.902738700002374]",0.011466749991086544,25.914213049989485,['A3'],['B2'],['C3'],['salmon'],['blue'],['yellow'],2561.8419455000003,None,7.0,1.8137425999993866,2561.8419455000003,None,2566.708583300002,None,4.0,7.281349600001704,2563.7251724000016,None,8.0,2.8144581000015023,2576.741603000002,None,7.0,7.64852719999908,<function functionImportanceC at 0x0000015B02B92400>,<function functionImportanceA at 0x0000015B02B92C80>,<function functionImportanceB at 0x0000015B02B92AE8>,,,1.0,3.5809881999994104,1.0,7.281349600001704,6.0,2.447864899997512,<function functiondiffB at 0x0000015B02B92A60>,<function functiondiffC at 0x0000015B02B928C8>,<function functiondiffA at 0x0000015B02B92F28>,,,,,2535.4686067000002,2587.5579899000004,None,2582.2748766000004,None,2585.0912804,None,20,001,2022_Jul_19_1456,2leo,2021.2.3,59.99304080709298,
3,9,Plan a picnic with friends,Stimuli/9A1.jpg,Stimuli/9A2.jpg,Stimuli/9A3.jpg,Stimuli/9B1.jpg,Stimuli/9B2.jpg,Stimuli/9B3.jpg,Stimuli/9C1.jpg,Stimuli/9C2.jpg,Stimuli/9C3.jpg,,,,,0,36,36,9,,,,,,,,2589.5091266000018,None,2590.524414200001,None,2596.5243271,None,"[-0.378, -0.136]","[0.07, 0.393]","[0.304, -0.26]","[-0.2, 0.346]","[0.399, -0.003]","[-0.203, -0.347]","[-0.377, 0.138]","[0.306, 0.255]","[0.066, -0.395]",,16.91469199999483,17.965251999994507,20.59858219999296,"[0.058333333333333334, 0.34814814814814815, -0.3592592592592593]","[0.31851851851851853, 0.04722222222222222, 0.06111111111111111]","[1, 1, 1]","[0, 0, 0]","[0, 0, 0]","[16.913046000001486, 17.963342099999863, 20.596514700002444]",0.0011389999926905148,20.597407399993244,['A2'],['B2'],['C1'],['yellow'],['blue'],['salmon'],2622.990113300002,None,8.0,2.2302438000006077,2622.990113300002,None,2637.389780199999,None,5.0,4.881639100000029,2631.923360500001,None,2.0,5.3823095000007015,2626.6568953999995,None,8.0,5.181032600001345,<function functionImportanceB at 0x0000015B01CBE0D0>,<function functionImportanceC at 0x0000015B01CBE400>,<function functionImportanceA at 0x0000015B02B92378>,,,1.0,3.4311153999988164,2.0,4.881639100000029,2.0,4.297526199999993,<function functiondiffA at 0x0000015B02B92268>,<function functiondiffC at 0x0000015B02B92D90>,<function functiondiffB at 0x0000015B02B92EA0>,,,,,2601.928760999999,2641.2232590999993,None,2648.2229358000004,None,2645.539805299999,None,20,001,2022_Jul_19_1456,2leo,2021.2.3,59.99304080709298,
3,19,Plan how you want your garden to look like,Stimuli/19A1.jpg,Stimuli/19A2.jpg,Stimuli/19A3.jpg,Stimuli/19B1.jpg,Stimuli/19B2.jpg,Stimuli/19B3.jpg,Stimuli/19C1.jpg,Stimuli/19C2.jpg,Stimuli/19C3.jpg,,,,,0,37,37,19,,,,,,,,2650.8075981,None,2651.822613600001,None,2657.822774799999,None,"[-0.203, -0.347]","[0.399, -0.003]","[-0.2, 0.346]","[0.066, -0.395]","[0.306, 0.255]","[-0.377, 0.138]","[0.304, -0.26]","[0.07, 0.393]","[-0.378, -0.136]",,26.49467284999264,32.19489284999145,24.895318649992987,"[0.05, 0.3787037037037037, 0.3101851851851852]","[0.325, 0.005555555555555556, 0.17592592592592593]","[1, 1, 1]","[0, 0, 0]","[0, 0, 0]","[24.884049600001163, 26.483931599999778, 32.18392230000245]",0.010209149993897881,32.1938295499931,['A2'],['B2'],['C2'],['salmon'],['yellow'],['blue'],2694.254685600001,None,7.0,2.112699100001919,2694.254685600001,None,2696.504994900002,None,2.0,8.298009199999797,2712.4879502000003,None,6.0,4.8984353999985615,2705.904547099999,None,7.0,6.298131399998965,<function functionImportanceA at 0x0000015B01CBE950>,<function functionImportanceB at 0x0000015B02FC2620>,<function functionImportanceC at 0x0000015B02FC22F0>,,,8.0,2.8478217999982007,4.0,8.298009199999797,1.0,3.230782900001941,<function functiondiffA at 0x0000015B02B92D08>,<function functiondiffC at 0x0000015B02B92E18>,<function functiondiffB at 0x0000015B02B92620>,,,,,2661.607676200001,2715.9544964000015,None,2722.1542456999996,None,2719.5710333000025,None,20,001,2022_Jul_19_1456,2leo,2021.2.3,59.99304080709298,
3,29,Plan a day in the mountains ,Stimuli/29A1.jpg,Stimuli/29A2.jpg,Stimuli/29A3.jpg,Stimuli/29B1.jpg,Stimuli/29B2.jpg,Stimuli/29B3.jpg,Stimuli/29C1.jpg,Stimuli/29C2.jpg,Stimuli/29C3.jpg,,,,,0,38,38,29,,,,,,,,2724.2720857999993,None,2725.2873013999997,None,2731.2873094000024,None,"[0.306, 0.255]","[-0.377, 0.138]","[0.066, -0.395]","[0.07, 0.393]","[-0.378, -0.136]","[0.304, -0.26]","[0.399, -0.003]","[-0.2, 0.346]","[-0.203, -0.347]",,10.477158549998421,24.309397450000688,17.709728049998375,"[-0.31666666666666665, 0.41203703703703703, 0.11851851851851852]","[0.06944444444444445, 0.05092592592592592, 0.4287037037037037]","[1, 1, 1]","[0, 0, 0]","[0, 0, 0]","[10.47227919999932, 17.70444789999965, 24.30433719999928]",0.004355349999968894,24.3084025499993,['A2'],['B1'],['C1'],['blue'],['salmon'],['yellow'],2757.2864769000007,None,6.0,2.196946800002479,2757.2864769000007,None,2763.1198545000007,None,8.0,2.7985417999989295,2765.9365141000017,None,2.0,1.981817100000626,2759.569827700001,None,8.0,3.4976615000014135,<function functionImportanceB at 0x0000015B02FC2268>,<function functionImportanceA at 0x0000015B02FC2D08>,<function functionImportanceC at 0x0000015B02FC2840>,,,3.0,3.730979699997988,5.0,2.7985417999989295,1.0,2.597842999999557,<function functiondiffC at 0x0000015B02FC2048>,<function functiondiffA at 0x0000015B02B92598>,<function functiondiffB at 0x0000015B02B92840>,,,,,2732.496590400002,2772.336132100001,None,2774.9363317999996,None,2767.853083099999,None,20,001,2022_Jul_19_1456,2leo,2021.2.3,59.99304080709298,
3,5,Plan a birthday party for your younger self when you turn eight,Stimuli/5A1.jpg,Stimuli/5A2.jpg,Stimuli/5A3.jpg,Stimuli/5B1.jpg,Stimuli/5B2.jpg,Stimuli/5B3.jpg,Stimuli/5C1.jpg,Stimuli/5C2.jpg,Stimuli/5C3.jpg,,,,,0,39,39,5,,,,,,,,2778.187489300002,None,2779.202369999999,None,2785.202588100001,None,"[0.399, -0.003]","[-0.2, 0.346]","[-0.203, -0.347]","[0.07, 0.393]","[-0.378, -0.136]","[0.304, -0.26]","[0.306, 0.255]","[-0.377, 0.138]","[0.066, -0.395]",,34.958151249989896,38.42527134998818,22.892565149988513,"[-0.30833333333333335, 0.387037037037037, -0.3675925925925926]","[0.06111111111111111, 0.016666666666666666, -0.046296296296296294]","[1, 1, 1]","[0, 0, 0]","[0, 0, 0]","[22.885655599999154, 34.951851899997564, 38.41861649999919]",0.005882049987121718,38.42427974999009,['A1'],['B2'],['C2'],['yellow'],['blue'],['salmon'],2829.8677376000014,None,6.0,1.8301960000026156,2829.8677376000014,None,2846.8008044000017,None,8.0,4.11547210000208,2832.384482100002,None,7.0,7.8308789000002434,2841.067269700001,None,4.0,4.598457900003268,<function functionImportanceC at 0x0000015B02FC2730>,<function functionImportanceB at 0x0000015B02FC21E0>,<function functionImportanceA at 0x0000015B02FC2378>,,,2.0,3.4475863999978174,1.0,4.11547210000208,8.0,3.6309894999976677,<function functiondiffB at 0x0000015B02B92730>,<function functiondiffA at 0x0000015B02B927B8>,<function functiondiffC at 0x0000015B009020D0>,,,,,2790.9839721999997,2852.5343262000024,None,2848.667347999999,None,2855.5671151000024,None,20,001,2022_Jul_19_1456,2leo,2021.2.3,59.99304080709298,
3,37,Plan your cleaning routine ,Stimuli/37A1.jpg,Stimuli/37A2.jpg,Stimuli/37A3.jpg,Stimuli/37B1.jpg,Stimuli/37B2.jpg,Stimuli/37B3.jpg,Stimuli/37C1.jpg,Stimuli/37C2.jpg,Stimuli/37C3.jpg,,,,,0,40,40,37,,,,,,,,2858.1021450000007,None,2859.116879199999,None,2865.117094199999,None,"[-0.203, -0.347]","[-0.2, 0.346]","[0.399, -0.003]","[0.066, -0.395]","[-0.377, 0.138]","[0.306, 0.255]","[0.304, -0.26]","[-0.378, -0.136]","[0.07, 0.393]",,26.22012094999809,27.75352334999843,28.470299149998027,"[-0.14629629629629629, 0.24537037037037038, 0.2490740740740741]","[0.2722222222222222, 0.25277777777777777, -0.2638888888888889]","[1, 1, 1]","[0, 0, 0]","[0, 0, 0]","[26.20968410000205, 27.74275910000142, 28.459417699999904]",0.00992384999699425,28.469312249999348,['A2'],['B3'],['C1'],['salmon'],['blue'],['yellow'],2895.232448900002,None,6.0,2.3473450999990746,2895.232448900002,None,2906.649078999999,None,7.0,2.565048199998273,2903.815827800001,None,3.0,2.7484519999998156,2897.682664,None,7.0,6.147364899999957,<function functionImportanceB at 0x0000015B02FC27B8>,<function functionImportanceC at 0x0000015B02FC28C8>,<function functionImportanceA at 0x0000015B02FC2488>,,,5.0,2.9479433999986213,2.0,2.565048199998273,1.0,3.131089599999541,<function functiondiffB at 0x0000015B02FC2E18>,<function functiondiffC at 0x0000015B01CBE2F0>,<function functiondiffA at 0x0000015B02B929D8>,,,,,2866.2887972999997,2914.7987961,None,2909.132405299999,None,2912.0989998000005,None,20,001,2022_Jul_19_1456,2leo,2021.2.3,59.99304080709298,
3,36,Plan your shopping for new clothing,Stimuli/36A1.jpg,Stimuli/36A2.jpg,Stimuli/36A3.jpg,Stimuli/36B1.jpg,Stimuli/36B2.jpg,Stimuli/36B3.jpg,Stimuli/36C1.jpg,Stimuli/36C2.jpg,Stimuli/36C3.jpg,,,,,0,41,41,36,,,,,,,,2917.450501899999,None,2918.4653271000025,None,2924.4654026999997,None,"[-0.2, 0.346]","[0.399, -0.003]","[-0.203, -0.347]","[-0.378, -0.136]","[0.07, 0.393]","[0.304, -0.26]","[-0.377, 0.138]","[0.306, 0.255]","[0.066, -0.395]",,22.316043249997165,20.48308504999659,21.46654204999504,"[0.13425925925925927, 0.24722222222222223, 0.3638888888888889]","[0.3435185185185185, 0.23425925925925925, 0.041666666666666664]","[1, 1, 1]","[0, 0, 0]","[0, 0, 0]","[20.47426009999981, 21.45753379999951, 22.307620899999165]",0.007925849997263867,22.31525634999707,['A2'],['B2'],['C2'],['blue'],['salmon'],['yellow'],2948.3978196999997,None,7.0,2.0633395000004384,2948.3978196999997,None,2957.914186099999,None,3.0,3.564972399999533,2954.1811657,None,5.0,3.715119300002698,2950.514579900002,None,9.0,3.631412000002456,<function functionImportanceB at 0x0000015B02FC2C80>,<function functionImportanceC at 0x0000015B02FC2D90>,<function functionImportanceA at 0x0000015B02FC26A8>,,,7.0,3.6143622000017785,2.0,3.564972399999533,6.0,4.8312044000012975,<function functiondiffC at 0x0000015B02FC2AE8>,<function functiondiffA at 0x0000015B02FC2158>,<function functiondiffB at 0x0000015B02FC29D8>,,,,,2925.605240000001,2964.8141294000015,None,2969.664006400002,None,2961.4641943999995,None,20,001,2022_Jul_19_1456,2leo,2021.2.3,59.99304080709298,
3,20,Plan a tea party with your friends,Stimuli/20A1.jpg,Stimuli/20A2.jpg,Stimuli/20A3.jpg,Stimuli/20B1.jpg,Stimuli/20B2.jpg,Stimuli/20B3.jpg,Stimuli/20C1.jpg,Stimuli/20C2.jpg,Stimuli/20C3.jpg,,,,,0,42,42,20,,,,,,,,2972.7993628000004,None,2973.813665900001,None,2979.8138569000002,None,"[0.399, -0.003]","[-0.2, 0.346]","[-0.203, -0.347]","[0.306, 0.255]","[-0.377, 0.138]","[0.066, -0.395]","[0.07, 0.393]","[-0.378, -0.136]","[0.304, -0.26]",,9.9949815499931,22.57740644999285,18.594277849992068,"[0.39166666666666666, 0.30833333333333335, 0.2962962962962963]","[0.03425925925925926, -0.1935185185185185, 0.20092592592592592]","[1, 1, 1]","[0, 0, 0]","[0, 0, 0]","[9.984362000002875, 18.583321400001296, 22.566819300001953]",0.00986844999351888,22.57647014999384,['A1'],['B1'],['C3'],['blue'],['salmon'],['yellow'],3006.4294120000013,None,7.0,3.146048000002338,3006.4294120000013,None,3020.6309604000016,None,2.0,2.3651587999993353,3009.6295346000006,None,8.0,3.714987499999552,3015.7627627,None,5.0,7.214744600001723,<function functionImportanceC at 0x0000015B036B77B8>,<function functionImportanceB at 0x0000015B036B7730>,<function functionImportanceA at 0x0000015B02FC2BF8>,,,1.0,3.331386500001827,1.0,2.3651587999993353,5.0,2.4646216000001004,<function functiondiffC at 0x0000015B02FC20D0>,<function functiondiffB at 0x0000015B02FC2510>,<function functiondiffA at 0x0000015B02FC2EA0>,,,,,2983.3952002000005,3028.8291474,None,3026.0124608000006,None,3022.9626921000017,None,20,001,2022_Jul_19_1456,2leo,2021.2.3,59.99304080709298,
3,3,Plan a movie night with a friend,Stimuli/3A1.jpg,Stimuli/3A2.jpg,Stimuli/3A3.jpg,Stimuli/3B1.jpg,Stimuli/3B2.jpg,Stimuli/3B3.jpg,Stimuli/3C1.jpg,Stimuli/3C2.jpg,Stimuli/3C3.jpg,,,,,0,43,43,3,,,,,,,,3030.8150461000005,None,3031.828822200001,None,3037.829035900002,None,"[0.306, 0.255]","[0.066, -0.395]","[-0.377, 0.138]","[0.07, 0.393]","[0.304, -0.26]","[-0.378, -0.136]","[0.399, -0.003]","[-0.203, -0.347]","[-0.2, 0.346]",,22.009426649998204,18.759851949998847,16.64321994999773,"[-0.1287037037037037, -0.3824074074074074, -0.3648148148148148]","[-0.3388888888888889, -0.06851851851851852, 0.06574074074074074]","[1, 1, 1]","[0, 0, 0]","[0, 0, 0]","[16.640964799997164, 18.75784399999975, 22.007633899997018]",0.0011099499970441684,22.008717049997358,['A3'],['B3'],['C2'],['yellow'],['blue'],['salmon'],3063.8612993000024,None,9.0,2.2800343000017165,3063.8612993000024,None,3078.9276181000023,None,10.0,4.181485799999791,3067.927868400002,None,6.0,5.331245800000033,3072.3610967000022,None,7.0,7.348236900001211,<function functionImportanceC at 0x0000015B036B7840>,<function functionImportanceB at 0x0000015B036B7488>,<function functionImportanceA at 0x0000015B036B7D90>,,,3.0,3.414818799999921,1.0,4.181485799999791,0.0,2.3641422000000603,<function functiondiffA at 0x0000015B036B7A60>,<function functiondiffC at 0x0000015B036B7AE8>,<function functiondiffB at 0x0000015B036B7598>,,,,,3041.387878100002,3083.094206599999,None,3088.9773614000005,None,3085.810869000001,None,20,001,2022_Jul_19_1456,2leo,2021.2.3,59.99304080709298,
3,33,Plan the items to decorate your Christmas tree,Stimuli/33A1.jpg,Stimuli/33A2.jpg,Stimuli/33A3.jpg,Stimuli/33B1.jpg,Stimuli/33B2.jpg,Stimuli/33B3.jpg,Stimuli/33C1.jpg,Stimuli/33C2.jpg,Stimuli/33C3.jpg,,,,,0,44,44,33,,,,,,,,3091.5461170000017,None,3092.5604342000006,None,3098.5603983,None,"[-0.2, 0.346]","[-0.203, -0.347]","[0.399, -0.003]","[-0.377, 0.138]","[0.066, -0.395]","[0.306, 0.255]","[-0.378, -0.136]","[0.304, -0.26]","[0.07, 0.393]",,21.111833250000927,20.062187750001613,18.06235525000011,"[0.225, 0.046296296296296294, -0.19907407407407407]","[-0.21388888888888888, -0.32592592592592595, 0.2962962962962963]","[1, 1, 1]","[0, 0, 0]","[0, 0, 0]","[18.047919900000124, 20.04800249999971, 21.098001500002283]",0.013411150001047645,21.111227650002547,['A1'],['B2'],['C2'],['salmon'],['yellow'],['blue'],3121.8428322,None,5.0,2.5969175999998697,3121.8428322,None,3134.4093372999996,None,9.0,3.38176569999996,3128.1930374000003,None,7.0,5.748206299998856,3124.543147700002,None,5.0,3.5979039000012563,<function functionImportanceB at 0x0000015B018967B8>,<function functionImportanceC at 0x0000015B01896378>,<function functionImportanceA at 0x0000015B02FC2B70>,,,6.0,3.248281099997257,2.0,3.38176569999996,2.0,3.5312419000001682,<function functiondiffB at 0x0000015B036B7268>,<function functiondiffC at 0x0000015B036B7620>,<function functiondiffA at 0x0000015B036B7C80>,,,,,3100.2760904000024,3143.6925924000025,None,3137.2592971000013,None,3140.525862900002,None,20,001,2022_Jul_19_1456,2leo,2021.2.3,59.99304080709298,
