Condition,N_Scenario,written_scenario,ImageA1,ImageA2,ImageA3,ImageB1,ImageB2,ImageB3,ImageC1,ImageC2,ImageC3,trials_2.thisRepN,trials_2.thisTrialN,trials_2.thisN,trials_2.thisIndex,trial.thisRepN,trial.thisTrialN,trial.thisN,trial.thisIndex,button_2.started,button_2.stopped,button_2.numClicks,button_2.timesOn,button_2.timesOff,text.started,text.stopped,fixationcross1_started,fixationcross1_stopped,Scenario_started,Scenario_stopped,fixationcross2_started,fixationcross2_stopped,A1pos,A2pos,A3pos,B1pos,B2pos,B3pos,C1pos,C2pos,C3pos,﻿Imagesdecision_started,decisiontimeA,decisiontimeB,decisiontimeC,mouse_x,mouse_y,mouse_leftButton,mouse_midButton,mouse_rightButton,mouse_time,mouse_started,mouse_stopped,clicked_optionA,clicked_optionB,clicked_optionC,colour_category_A,colour_category_B,colour_category_C,question_confidence_started,question_confidence_stopped,slider_confidence_response,slider_confidence_rt,slider_confidence_started,slider_confidence_stopped,question_valueA_started,question_valueA_stopped,slider_valueA_response,slider_valueA_rt,question_valueB_started,question_valueB_stopped,slider_valueB_response,slider_valueB_rt,question_valueC_started,question_valueC_stopped,slider_valueC_response,slider_valueC_rt,Importance_First,Importance_Second,Importance_Third,question_diff_started,question_diff_stopped,slider_diffC_response,slider_diffC_rt,slider_diffA_response,slider_diffA_rt,slider_diffB_response,slider_diffB_rt,diff_First,diff_Second,diff_Third,button_3_started,button_3_stopped,text_2_started,text_2_stopped,Imagesdecision_started,question_diffC_started,question_diffC_stopped,question_diffA_started,question_diffA_stopped,question_diffB_started,question_diffB_stopped,participant,session,date,expName,psychopyVersion,frameRate,
3,2,Plan a party to celebrate your birthday,Stimuli/2A1t.jpg,Stimuli/2A2t.jpg,Stimuli/2A3t.jpg,Stimuli/2B1t.jpg,Stimuli/2B2t.jpg,Stimuli/2B3t.jpg,Stimuli/2C1t.jpg,Stimuli/2C2t.jpg,Stimuli/2C3t.jpg,0,0,0,0,,,,,25.799437400000897,None,1,[6.467323099999703],[6.467327300000761],25.799437400000897,None,84.36260070000026,None,85.36647360000097,None,91.36657949999972,None,"[0.306, 0.255]","[-0.377, 0.138]","[0.066, -0.395]","[0.07, 0.393]","[-0.378, -0.136]","[0.304, -0.26]","[0.399, -0.003]","[-0.2, 0.346]","[-0.203, -0.347]",95.41632430000027,8.676895840018915,49.59278194001854,52.5445844400183,"[0.3101851851851852, 0.04537037037037037, -0.18796296296296297]","[0.26944444444444443, 0.42962962962962964, -0.3314814814814815]","[1, 1, 1]","[0, 0, 0]","[0, 0, 0]","[8.664083700001356, 49.57970870000099, 52.53111549999994]",0.012402540018229047,52.54328574001738,['A1'],['B1'],['C3'],['blue'],['salmon'],['yellow'],148.41466469999978,None,7.0,5.595297100000607,148.41466469999978,None,155.39813689999937,None,9.0,15.530721900000572,171.19760119999955,None,6.0,4.981490300000587,174.6472257000005,None,9.0,3.514918299999408,<function functionImportanceAt at 0x000002129160BEA0>,<function functionImportanceBt at 0x000002129160BD08>,<function functionImportanceCt at 0x000002129160BBF8>,188.11388199999965,None,7.0,5.181257099999129,8.0,15.530721900000572,5.0,4.647864599999593,<function functiondiffCt at 0x00000212915A32F0>,<function functiondiffAt at 0x00000212915A3BF8>,<function functiondiffBt at 0x00000212915A39D8>,,,,,,,,,,,,12,001,2022_Jul_12_1417,2leo,2021.2.3,59.937844454755485,
3,3,Plan one week of vacation,Stimuli/3A1t.jpg,Stimuli/3A2t.jpg,Stimuli/3A3t.jpg,Stimuli/3B1t.jpg,Stimuli/3B2t.jpg,Stimuli/3B3t.jpg,Stimuli/3C1t.jpg,Stimuli/3C2t.jpg,Stimuli/3C3t.jpg,0,1,1,1,,,,,,,,,,,,191.83042980000027,None,192.83048729999973,None,198.8304418000007,None,"[-0.378, -0.136]","[0.07, 0.393]","[0.304, -0.26]","[-0.377, 0.138]","[0.306, 0.255]","[0.066, -0.395]","[-0.2, 0.346]","[0.399, -0.003]","[-0.203, -0.347]",204.99786769999992,20.170105740029612,5.470756140030062,15.5541406400298,"[-0.37962962962962965, -0.18333333333333332, 0.0824074074074074]","[0.13703703703703704, 0.37777777777777777, 0.4064814814814815]","[1, 1, 1]","[0, 0, 0]","[0, 0, 0]","[5.466730699999971, 15.549840700001369, 20.166268500001024]",0.0033446400302636903,20.16947534002975,['A2'],['B1'],['C1'],['salmon'],['yellow'],['blue'],225.62928610000017,None,8.0,3.081476499999553,225.62928610000017,None,236.47930410000117,None,10.0,6.465051899998798,242.74569789999987,None,7.0,6.181702699999732,230.2126827000011,None,9.0,5.764474999999948,<function functionImportanceCt at 0x000002129160BD90>,<function functionImportanceAt at 0x00000212FEE231E0>,<function functionImportanceBt at 0x000002129160B9D8>,259.12880609999957,None,5.0,3.9311832999992475,7.0,6.465051899998798,6.0,3.2476703000011184,<function functiondiffAt at 0x00000212915A3730>,<function functiondiffBt at 0x00000212915A31E0>,<function functiondiffCt at 0x00000212915A3268>,,,,,,,,,,,,12,001,2022_Jul_12_1417,2leo,2021.2.3,59.937844454755485,
3,35,Plan how you want to do your grocery shopping ,Stimuli/35A1.jpg,Stimuli/35A2.jpg,Stimuli/35A3.jpg,Stimuli/35B1.jpg,Stimuli/35B2.jpg,Stimuli/35B3.jpg,Stimuli/35C1.jpg,Stimuli/35C2.jpg,Stimuli/35C3.jpg,,,,,0,0,0,35,,,,,,,,313.6592180000007,None,314.64385179999954,None,320.64381460000004,None,"[0.399, -0.003]","[-0.203, -0.347]","[-0.2, 0.346]","[0.07, 0.393]","[0.304, -0.26]","[-0.378, -0.136]","[0.306, 0.255]","[0.066, -0.395]","[-0.377, 0.138]",,16.274460320002618,11.141668920003212,6.092216620003455,"[-0.3648148148148148, 0.09166666666666666, 0.4064814814814815]","[0.1111111111111111, 0.38981481481481484, -0.003703703703703704]","[1, 1, 1]","[0, 0, 0]","[0, 0, 0]","[6.07703599999877, 11.126936900000146, 16.260026899999502]",0.01399462000335916,16.273971920003532,['A1'],['B1'],['C3'],['salmon'],['blue'],['yellow'],338.6763754000003,None,9.0,3.2460836000009294,338.6763754000003,None,346.89305670000067,None,8.0,5.098513999999341,352.0429366999997,None,9.0,4.114451200000985,342.0264757999994,None,6.0,4.797723900001074,<function functionImportanceC at 0x000002129249CBF8>,<function functionImportanceA at 0x00000212915A3F28>,<function functionImportanceB at 0x000002129160B840>,,,5.0,5.098513999999341,6.0,5.348067200000514,4.0,3.697125099999539,<function functiondiffC at 0x000002129249CD08>,<function functiondiffA at 0x000002129249CF28>,<function functiondiffB at 0x000002129249C8C8>,262.1453335999995,None,262.1453335999995,None,321.93420119999973,356.0261602999999,None,359.5925540999997,None,364.97581209999953,None,12,001,2022_Jul_12_1417,2leo,2021.2.3,59.937844454755485,
3,4,Plan a game night at your place,Stimuli/4A1.jpg,Stimuli/4A2.jpg,Stimuli/4A3.jpg,Stimuli/4B1.jpg,Stimuli/4B2.jpg,Stimuli/4B3.jpg,Stimuli/4C1.jpg,Stimuli/4C2.jpg,Stimuli/4C3.jpg,,,,,0,1,1,4,,,,,,,,368.17578830000093,None,369.1756931,None,375.17574650000097,None,"[0.304, -0.26]","[-0.378, -0.136]","[0.07, 0.393]","[0.066, -0.395]","[-0.377, 0.138]","[0.306, 0.255]","[-0.203, -0.347]","[-0.2, 0.346]","[0.399, -0.003]",,9.837740800016036,15.20473730001504,20.772000100016157,"[0.26851851851851855, 0.27314814814814814, -0.2101851851851852]","[-0.25092592592592594, 0.24444444444444444, 0.3574074074074074]","[1, 1, 1]","[0, 0, 0]","[0, 0, 0]","[9.822651600001336, 15.1891727000002, 20.756322700000965]",0.014667200015537674,20.770317200016507,['A1'],['B3'],['C2'],['salmon'],['blue'],['yellow'],399.84146789999977,None,7.0,2.7461830000011105,399.84146789999977,None,412.5076804,None,4.0,4.73171050000019,402.6415498000006,None,9.0,4.481121900000289,408.4621124999994,None,6.0,4.314870700000029,<function functionImportanceB at 0x000002129249C378>,<function functionImportanceC at 0x000002129249C6A8>,<function functionImportanceA at 0x00000212915A3EA0>,,,8.0,4.73171050000019,7.0,4.714657799999259,8.0,3.347668700000213,<function functiondiffB at 0x000002128F32E9D8>,<function functiondiffA at 0x000002128E991E18>,<function functiondiffC at 0x000002129249C510>,,,,,378.6200224000004,424.6744534999998,None,419.8909557999996,None,416.2078870999994,None,12,001,2022_Jul_12_1417,2leo,2021.2.3,59.937844454755485,
3,3,Plan a movie night with a friend,Stimuli/3A1.jpg,Stimuli/3A2.jpg,Stimuli/3A3.jpg,Stimuli/3B1.jpg,Stimuli/3B2.jpg,Stimuli/3B3.jpg,Stimuli/3C1.jpg,Stimuli/3C2.jpg,Stimuli/3C3.jpg,,,,,0,2,2,3,,,,,,,,427.24078630000076,None,428.24095429999943,None,434.2408004000008,None,"[-0.203, -0.347]","[0.399, -0.003]","[-0.2, 0.346]","[0.304, -0.26]","[0.07, 0.393]","[-0.378, -0.136]","[0.066, -0.395]","[0.306, 0.255]","[-0.377, 0.138]",,21.952204540017192,16.939018140015833,4.602999140017346,"[0.30925925925925923, 0.08796296296296297, 0.39444444444444443]","[0.24444444444444444, 0.3824074074074074, 0.04259259259259259]","[1, 1, 1]","[0, 0, 0]","[0, 0, 0]","[4.586708599999838, 16.921341600000233, 21.936446499999875]",0.015180940015852684,21.951577240017286,['A2'],['B2'],['C2'],['salmon'],['yellow'],['blue'],460.3564010000009,None,6.0,3.164400800000294,460.3564010000009,None,463.62334829999963,None,6.0,4.6639328000001115,474.5229522000009,None,5.0,7.115050599999449,470.07331499999964,None,4.0,5.515028899999379,<function functionImportanceA at 0x000002129249C840>,<function functionImportanceC at 0x00000212927EE488>,<function functionImportanceB at 0x00000212915A3510>,,,3.0,4.6639328000001115,8.0,2.564341399998739,6.0,3.0646336000008887,<function functiondiffC at 0x00000212915A3C80>,<function functiondiffA at 0x000002129249C400>,<function functiondiffB at 0x000002129249CC80>,,,,,437.95488359999945,481.28950240000086,None,484.32261649999964,None,487.28951790000065,None,12,001,2022_Jul_12_1417,2leo,2021.2.3,59.937844454755485,
3,23,Plan a city trip,Stimuli/23A1.jpg,Stimuli/23A2.jpg,Stimuli/23A3.jpg,Stimuli/23B1.jpg,Stimuli/23B2.jpg,Stimuli/23B3.jpg,Stimuli/23C1.jpg,Stimuli/23C2.jpg,Stimuli/23C3.jpg,,,,,0,3,3,23,,,,,,,,489.4893013000001,None,490.48908400000073,None,496.48904609999954,None,"[-0.203, -0.347]","[-0.2, 0.346]","[0.399, -0.003]","[0.304, -0.26]","[-0.378, -0.136]","[0.07, 0.393]","[0.066, -0.395]","[-0.377, 0.138]","[0.306, 0.255]",,11.784641120002561,18.31826402000297,5.752406420002444,"[-0.34814814814814815, -0.18055555555555555, 0.05740740740740741]","[0.08703703703703704, -0.34629629629629627, 0.37037037037037035]","[1, 1, 1]","[0, 0, 0]","[0, 0, 0]","[5.7411751999989065, 11.773979499999768, 18.30714589999843]",0.010210120002739131,18.31728172000294,['A1'],['B3'],['C2'],['blue'],['salmon'],['yellow'],516.4883800000007,None,9.0,3.397058799999286,516.4883800000007,None,524.4049670000004,None,8.0,3.1984819999997853,519.9884142999999,None,10.0,4.448294300000271,527.7215959999994,None,9.0,3.0147235000004002,<function functionImportanceB at 0x00000212915A3840>,<function functionImportanceA at 0x00000212915A3598>,<function functionImportanceC at 0x00000212927EE048>,,,6.0,3.1984819999997853,6.0,3.181393000000753,8.0,2.2648226999990584,<function functiondiffC at 0x000002128E8DEF28>,<function functiondiffA at 0x000002129249C950>,<function functiondiffB at 0x00000212915A36A8>,,,,,497.6969373000011,530.638393700001,None,534.5046141000003,None,537.7046406000009,None,12,001,2022_Jul_12_1417,2leo,2021.2.3,59.937844454755485,
3,32,Plan how you want to relax after a workday,Stimuli/32A1.jpg,Stimuli/32A2.jpg,Stimuli/32A3.jpg,Stimuli/32B1.jpg,Stimuli/32B2.jpg,Stimuli/32B3.jpg,Stimuli/32C1.jpg,Stimuli/32C2.jpg,Stimuli/32C3.jpg,,,,,0,4,4,32,,,,,,,,539.4879703000006,None,540.4877708000004,None,546.4878098999998,None,"[-0.203, -0.347]","[-0.2, 0.346]","[0.399, -0.003]","[0.066, -0.395]","[-0.377, 0.138]","[0.306, 0.255]","[0.304, -0.26]","[-0.378, -0.136]","[0.07, 0.393]",,18.50588884001263,8.989475040012621,13.7902060400138,"[0.10555555555555556, -0.35462962962962963, -0.22962962962962963]","[-0.3824074074074074, -0.13703703703703704, -0.3435185185185185]","[1, 1, 1]","[0, 0, 0]","[0, 0, 0]","[8.983505800000785, 13.78381730000001, 18.500180800001544]",0.005301540013533668,18.50516464001339,['A1'],['B1'],['C2'],['yellow'],['salmon'],['blue'],568.5036252999998,None,7.0,2.3469217999991088,568.5036252999998,None,572.0205072999997,None,5.0,5.381028400001014,577.1033599000002,None,4.0,4.581501099999514,580.9199494000004,None,6.0,2.9815862999985256,<function functionImportanceA at 0x000002129249CD90>,<function functionImportanceB at 0x00000212927EE158>,<function functionImportanceC at 0x00000212927EEC80>,,,6.0,5.381028400001014,4.0,3.297757599999386,5.0,4.347071000000142,<function functiondiffB at 0x000002129249CE18>,<function functiondiffC at 0x00000212927EEB70>,<function functiondiffA at 0x000002129249C9D8>,,,,,549.5378890000011,588.2533280999996,None,592.0365651000011,None,584.0701090000002,None,12,001,2022_Jul_12_1417,2leo,2021.2.3,59.937844454755485,
3,42,Plan how to draw a painting ,Stimuli/42A1.jpg,Stimuli/42A2.jpg,Stimuli/42A3.jpg,Stimuli/42B1.jpg,Stimuli/42B2.jpg,Stimuli/42B3.jpg,Stimuli/42C1.jpg,Stimuli/42C2.jpg,Stimuli/42C3.jpg,,,,,0,5,5,42,,,,,,,,594.4864693,None,595.4864529000006,None,601.4863948000002,None,"[0.306, 0.255]","[0.066, -0.395]","[-0.377, 0.138]","[0.399, -0.003]","[-0.203, -0.347]","[-0.2, 0.346]","[0.07, 0.393]","[0.304, -0.26]","[-0.378, -0.136]",,17.34031750000031,8.50921390000076,21.657467799999722,"[-0.2361111111111111, -0.36203703703703705, 0.34074074074074073]","[-0.3638888888888889, 0.10462962962962963, -0.24351851851851852]","[1, 1, 1]","[0, 0, 0]","[0, 0, 0]","[8.494700100000045, 17.326090799999292, 21.642770099999325]",0.01363119999950868,21.656244300000253,['A3'],['B2'],['C2'],['blue'],['yellow'],['salmon'],624.9354194000007,None,5.0,2.1971409999987372,624.9354194000007,None,631.618935800001,None,3.0,2.8481768000001466,634.3021838999994,None,6.0,2.8816308999994362,627.1856542000005,None,3.0,4.198237399999925,<function functionImportanceC at 0x00000212927EEF28>,<function functionImportanceA at 0x00000212927EE620>,<function functionImportanceB at 0x00000212927EE510>,,,8.0,2.8481768000001466,10.0,3.48090190000039,7.0,2.930560400000104,<function functiondiffB at 0x000002129249C268>,<function functiondiffC at 0x00000212927EED08>,<function functiondiffA at 0x000002129249C158>,,,,,602.8089080999998,640.1019304000001,None,643.2684459000011,None,637.1520417000011,None,12,001,2022_Jul_12_1417,2leo,2021.2.3,59.937844454755485,
3,2,Plan which ingredients you want to use for cooking dinner today,Stimuli/2A1.jpg,Stimuli/2A2.jpg,Stimuli/2A3.jpg,Stimuli/2B1.jpg,Stimuli/2B2.jpg,Stimuli/2B3.jpg,Stimuli/2C1.jpg,Stimuli/2C2.jpg,Stimuli/2C3.jpg,,,,,0,6,6,2,,,,,,,,646.2352191000009,None,647.2349498000003,None,653.2350834999997,None,"[-0.203, -0.347]","[-0.2, 0.346]","[0.399, -0.003]","[0.066, -0.395]","[-0.377, 0.138]","[0.306, 0.255]","[0.304, -0.26]","[-0.378, -0.136]","[0.07, 0.393]",,18.37206802003311,5.156226320032147,11.289675220032223,"[0.3527777777777778, 0.028703703703703703, -0.20833333333333334]","[0.28055555555555556, 0.35462962962962963, -0.32592592592592595]","[1, 1, 1]","[0, 0, 0]","[0, 0, 0]","[5.142345500000374, 11.275541000000885, 18.358642000001055]",0.013023720031924313,18.371480820032957,['A1'],['B3'],['C3'],['blue'],['salmon'],['yellow'],678.250925100001,None,6.0,3.997455300001093,678.250925100001,None,687.7004231999999,None,5.0,4.74838439999985,694.6504485999994,None,8.0,6.8505717999996705,682.9009678000002,None,8.0,4.264375499999005,<function functionImportanceC at 0x00000212927EEBF8>,<function functionImportanceA at 0x00000212927EE6A8>,<function functionImportanceB at 0x00000212927EEAE8>,,,5.0,4.74838439999985,6.0,2.947988300000361,4.0,3.5450909999999567,<function functiondiffB at 0x00000212927EED90>,<function functiondiffA at 0x00000212927EEE18>,<function functiondiffC at 0x000002129249C488>,,,,,659.4269781000003,704.9003121999995,None,702.0837556000006,None,699.0341833000002,None,12,001,2022_Jul_12_1417,2leo,2021.2.3,59.937844454755485,
3,1,Plan how to study for an exam,Stimuli/1A1.jpg,Stimuli/1A2.jpg,Stimuli/1A3.jpg,Stimuli/1B1.jpg,Stimuli/1B2.jpg,Stimuli/1B3.jpg,Stimuli/1C1.jpg,Stimuli/1C2.jpg,Stimuli/1C3.jpg,,,,,0,7,7,1,,,,,,,,707.4666799000006,None,708.4666975,None,714.466594200001,None,"[0.07, 0.393]","[0.304, -0.26]","[-0.378, -0.136]","[0.399, -0.003]","[-0.203, -0.347]","[-0.2, 0.346]","[0.306, 0.255]","[0.066, -0.395]","[-0.377, 0.138]",,13.452140900002632,9.76937320000252,3.3369623000035062,"[0.3296296296296296, -0.20555555555555555, 0.2777777777777778]","[0.2462962962962963, 0.32407407407407407, -0.2824074074074074]","[1, 1, 1]","[0, 0, 0]","[0, 0, 0]","[3.325859299999138, 9.758340299998963, 13.44141049999962]",0.01016900000286114,13.451445300002888,['A2'],['B3'],['C1'],['yellow'],['blue'],['salmon'],729.5493623000002,None,7.0,2.013437600000543,729.5493623000002,None,731.6660314000001,None,8.0,4.148045800000546,738.5494395000005,None,10.0,3.148868300000686,735.7828700999999,None,10.0,2.6481720000010682,<function functionImportanceA at 0x00000212915A3A60>,<function functionImportanceC at 0x00000212927EE400>,<function functionImportanceB at 0x00000212927EEEA0>,,,5.0,4.148045800000546,3.0,2.8314055999999255,6.0,4.0642207999990205,<function functiondiffC at 0x000002129249CEA0>,<function functiondiffB at 0x00000212927EEA60>,<function functiondiffA at 0x00000212927EE9D8>,,,,,715.6245061000009,741.5826066000009,None,748.8656549000007,None,744.7658061000002,None,12,001,2022_Jul_12_1417,2leo,2021.2.3,59.937844454755485,
3,21,Plan your sandwich for lunch,Stimuli/21A1.jpg,Stimuli/21A2.jpg,Stimuli/21A3.jpg,Stimuli/21B1.jpg,Stimuli/21B2.jpg,Stimuli/21B3.jpg,Stimuli/21C1.jpg,Stimuli/21C2.jpg,Stimuli/21C3.jpg,,,,,0,8,8,21,,,,,,,,751.2156852999997,None,752.2155817000003,None,758.2153803000001,None,"[0.304, -0.26]","[0.07, 0.393]","[-0.378, -0.136]","[-0.203, -0.347]","[0.399, -0.003]","[-0.2, 0.346]","[0.066, -0.395]","[0.306, 0.255]","[-0.377, 0.138]",,12.477407500000481,11.044593600001463,4.944923099999869,"[0.30185185185185187, -0.20555555555555555, 0.3537037037037037]","[0.2324074074074074, 0.36018518518518516, -0.262037037037037]","[1, 1, 1]","[0, 0, 0]","[0, 0, 0]","[4.929258199999822, 11.029097200000251, 12.46238219999941]",0.014603000001443434,12.476723000001584,['A1'],['B3'],['C2'],['salmon'],['blue'],['yellow'],772.3149444999999,None,4.0,2.5306823999999324,772.3149444999999,None,774.8983439000003,None,9.0,3.047524400000839,777.964751200001,None,6.0,3.198361199998544,781.1982050999995,None,4.0,2.798627599999236,<function functionImportanceA at 0x000002129249C048>,<function functionImportanceB at 0x000002129249CA60>,<function functionImportanceC at 0x000002129249CAE8>,,,4.0,3.047524400000839,1.0,3.931214899999759,6.0,2.931402700000035,<function functiondiffC at 0x00000212927EE268>,<function functiondiffB at 0x00000212927EE950>,<function functiondiffA at 0x00000212927EE598>,,,,,759.366770300001,783.9649391000003,None,791.2481540999997,None,788.3147509999999,None,12,001,2022_Jul_12_1417,2leo,2021.2.3,59.937844454755485,
3,13,Plan a romantic date this weekend,Stimuli/13A1.jpg,Stimuli/13A2.jpg,Stimuli/13A3.jpg,Stimuli/13B1.jpg,Stimuli/13B2.jpg,Stimuli/13B3.jpg,Stimuli/13C1.jpg,Stimuli/13C2.jpg,Stimuli/13C3.jpg,,,,,0,9,9,13,,,,,,,,794.7144354000011,None,795.7146782,None,801.7146109000005,None,"[-0.377, 0.138]","[0.306, 0.255]","[0.066, -0.395]","[-0.378, -0.136]","[0.07, 0.393]","[0.304, -0.26]","[-0.2, 0.346]","[0.399, -0.003]","[-0.203, -0.347]",,15.725025360003201,14.775438660002692,8.625560560003578,"[-0.18981481481481483, 0.31574074074074077, 0.31203703703703706]","[0.30833333333333335, -0.2638888888888889, 0.25462962962962965]","[1, 1, 1]","[0, 0, 0]","[0, 0, 0]","[8.610707300000286, 14.76074730000073, 15.710608600000342]",0.013824960004058084,15.724328960002822,['A2'],['B3'],['C1'],['yellow'],['salmon'],['blue'],819.1304345000008,None,4.0,2.3302383000009286,819.1304345000008,None,828.9470316999996,None,1.0,3.5482422999994014,825.2638803999998,None,2.0,3.7151785000005475,821.5302626000012,None,7.0,3.664442399998734,<function functionImportanceC at 0x0000021292C61620>,<function functionImportanceB at 0x0000021292C61A60>,<function functionImportanceA at 0x0000021292C61950>,,,8.0,3.5482422999994014,7.0,3.8975988999991387,6.0,3.0310638999999355,<function functiondiffB at 0x00000212915A30D0>,<function functiondiffC at 0x00000212915A3620>,<function functiondiffA at 0x00000212927EE1E0>,,,,,802.9349552000003,835.5302511000009,None,838.1966499000009,None,832.4968616000006,None,12,001,2022_Jul_12_1417,2leo,2021.2.3,59.937844454755485,
3,27,Plan what festival to visit with your friends,Stimuli/27A1.jpg,Stimuli/27A2.jpg,Stimuli/27A3.jpg,Stimuli/27B1.jpg,Stimuli/27B2.jpg,Stimuli/27B3.jpg,Stimuli/27C1.jpg,Stimuli/27C2.jpg,Stimuli/27C3.jpg,,,,,0,10,10,27,,,,,,,,841.6131234000004,None,842.613140200001,None,848.6133917999996,None,"[-0.203, -0.347]","[0.399, -0.003]","[-0.2, 0.346]","[0.066, -0.395]","[0.306, 0.255]","[-0.377, 0.138]","[0.304, -0.26]","[0.07, 0.393]","[-0.378, -0.136]",,14.496770460000334,9.39706046000174,18.647330960000545,"[0.07592592592592592, -0.2, 0.07037037037037037]","[-0.4046296296296296, -0.3351851851851852, 0.4425925925925926]","[1, 1, 1]","[0, 0, 0]","[0, 0, 0]","[9.3804626000001, 14.4804355999986, 18.630336399999578]",0.015915260000838316,18.646197160001975,['A1'],['B1'],['C2'],['yellow'],['blue'],['salmon'],868.8623394999995,None,2.0,2.0304825999992318,868.8623394999995,None,877.529084400001,None,10.0,4.148352799998975,870.9625777000001,None,6.0,2.947590300000229,873.9292174000002,None,9.0,3.5986340999988897,<function functionImportanceB at 0x0000021292C619D8>,<function functionImportanceC at 0x0000021292C61048>,<function functionImportanceA at 0x00000212927EE2F0>,,,9.0,4.148352799998975,7.0,3.0644261999987066,7.0,2.7810138999993796,<function functiondiffB at 0x00000212927EE730>,<function functiondiffA at 0x00000212927EE0D0>,<function functiondiffC at 0x00000212915A3158>,,,,,849.7469868999997,887.5620438000005,None,884.4788915000008,None,881.6790233000011,None,12,001,2022_Jul_12_1417,2leo,2021.2.3,59.937844454755485,
3,34,Plan what car you want to buy,Stimuli/34A1.jpg,Stimuli/34A2.jpg,Stimuli/34A3.jpg,Stimuli/34B1.jpg,Stimuli/34B2.jpg,Stimuli/34B3.jpg,Stimuli/34C1.jpg,Stimuli/34C2.jpg,Stimuli/34C3.jpg,,,,,0,11,11,34,,,,,,,,889.4954266999994,None,890.495261600001,None,896.4953211000011,None,"[-0.377, 0.138]","[0.066, -0.395]","[0.306, 0.255]","[-0.378, -0.136]","[0.304, -0.26]","[0.07, 0.393]","[-0.2, 0.346]","[-0.203, -0.347]","[0.399, -0.003]",,4.938331240011394,9.27161094001167,16.555332340012683,"[-0.37037037037037035, -0.3101851851851852, 0.3814814814814815]","[0.1111111111111111, -0.10925925925925926, 0.006481481481481481]","[1, 1, 1]","[0, 0, 0]","[0, 0, 0]","[4.92445939999925, 9.257566100000986, 16.540883400000894]",0.013368840012844885,16.55413484001292,['A1'],['B1'],['C3'],['yellow'],['blue'],['salmon'],916.627843100001,None,7.0,2.5969659999991563,916.627843100001,None,924.5946573000001,None,8.0,4.965160699999615,920.2613117000001,None,10.0,4.281412700000146,928.5776798999996,None,7.0,3.0152655000001687,<function functionImportanceB at 0x0000021292C61400>,<function functionImportanceA at 0x0000021292C61268>,<function functionImportanceC at 0x0000021292C61AE8>,,,3.0,4.965160699999615,4.0,4.181348900001467,0.0,3.5644548000000214,<function functiondiffC at 0x0000021292C618C8>,<function functiondiffB at 0x0000021292C61B70>,<function functiondiffA at 0x0000021292C61510>,,,,,899.6193392999994,931.5776265000004,None,938.5607945000011,None,934.8609299,None,12,001,2022_Jul_12_1417,2leo,2021.2.3,59.937844454755485,
3,39,Plan what kind of watch you want to buy,Stimuli/39A1.jpg,Stimuli/39A2.jpg,Stimuli/39A3.jpg,Stimuli/39B1.jpg,Stimuli/39B2.jpg,Stimuli/39B3.jpg,Stimuli/39C1.jpg,Stimuli/39C2.jpg,Stimuli/39C3.jpg,,,,,0,12,12,39,,,,,,,,941.8938400999996,None,942.8939855999997,None,948.8941113000001,None,"[-0.203, -0.347]","[-0.2, 0.346]","[0.399, -0.003]","[0.066, -0.395]","[-0.377, 0.138]","[0.306, 0.255]","[0.304, -0.26]","[-0.378, -0.136]","[0.07, 0.393]",,18.122276879999845,3.8730787799995596,12.256117380000433,"[0.10185185185185185, 0.2574074074074074, -0.22685185185185186]","[-0.3888888888888889, -0.25833333333333336, 0.3398148148148148]","[1, 1, 1]","[0, 0, 0]","[0, 0, 0]","[3.868455499999982, 12.251253700000234, 18.11779639999986]",0.003944579999370035,18.12170997999965,['A2'],['B1'],['C1'],['yellow'],['salmon'],['blue'],968.6930431000001,None,5.0,2.980599800001073,968.6930431000001,None,979.6764645000003,None,7.0,2.665032599999904,975.4929049000002,None,9.0,4.1315231999997195,971.7933458999996,None,3.0,3.7310531999992236,<function functionImportanceC at 0x0000021292C61D08>,<function functionImportanceB at 0x0000021292C61E18>,<function functionImportanceA at 0x000002129249C598>,,,7.0,2.665032599999904,7.0,4.6808751999997185,2.0,2.697723000001133,<function functiondiffB at 0x0000021292C61598>,<function functiondiffC at 0x0000021292C61C80>,<function functiondiffA at 0x0000021292C610D0>,,,,,950.0912747000002,985.0096236999998,None,987.2262582000003,None,982.2930408000011,None,12,001,2022_Jul_12_1417,2leo,2021.2.3,59.937844454755485,
3,43,Plan your dream house,Stimuli/43A1.jpg,Stimuli/43A2.jpg,Stimuli/43A3.jpg,Stimuli/43B1.jpg,Stimuli/43B2.jpg,Stimuli/43B3.jpg,Stimuli/43C1.jpg,Stimuli/43C2.jpg,Stimuli/43C3.jpg,,,,,0,13,13,43,,,,,,,,991.4260648,None,992.4258511999997,None,998.4259137999998,None,"[0.07, 0.393]","[-0.378, -0.136]","[0.304, -0.26]","[0.306, 0.255]","[-0.377, 0.138]","[0.066, -0.395]","[0.399, -0.003]","[-0.2, 0.346]","[-0.203, -0.347]",,20.34966600000189,13.79994230000193,9.517048000001523,"[-0.19907407407407407, -0.35, -0.4361111111111111]","[-0.2935185185185185, 0.13240740740740742, -0.1361111111111111]","[1, 1, 1]","[0, 0, 0]","[0, 0, 0]","[9.506785600000512, 13.790052199999991, 20.340004199999385]",0.009127000001171837,20.34904810000262,['A2'],['B2'],['C3'],['salmon'],['yellow'],['blue'],1020.4085018000005,None,3.0,2.28025770000022,1020.4085018000005,None,1034.1248864999998,None,8.0,4.031459600000744,1022.7419456000007,None,8.0,3.481199600000764,1026.2417771,None,9.0,7.831699899999876,<function functionImportanceB at 0x000002129249C620>,<function functionImportanceC at 0x0000021292C61D90>,<function functionImportanceA at 0x000002129249CB70>,,,8.0,4.031459600000744,7.0,2.4477519000010943,4.0,2.3979041000002326,<function functiondiffC at 0x0000021292C61EA0>,<function functiondiffB at 0x0000021292C61730>,<function functiondiffA at 0x0000021292C61488>,,,,,999.5825837000011,1038.1247932000006,None,1043.4913787999994,None,1041.0748043000003,None,12,001,2022_Jul_12_1417,2leo,2021.2.3,59.937844454755485,
3,33,Plan the items to decorate your Christmas tree,Stimuli/33A1.jpg,Stimuli/33A2.jpg,Stimuli/33A3.jpg,Stimuli/33B1.jpg,Stimuli/33B2.jpg,Stimuli/33B3.jpg,Stimuli/33C1.jpg,Stimuli/33C2.jpg,Stimuli/33C3.jpg,,,,,0,14,14,33,,,,,,,,1045.4578069,None,1046.4579262000007,None,1052.4579756000003,None,"[-0.377, 0.138]","[0.066, -0.395]","[0.306, 0.255]","[-0.378, -0.136]","[0.304, -0.26]","[0.07, 0.393]","[-0.2, 0.346]","[-0.203, -0.347]","[0.399, -0.003]",,4.576272280004559,13.726307380005892,9.293327380004484,"[-0.387037037037037, -0.16296296296296298, -0.3398148148148148]","[0.09351851851851851, -0.3435185185185185, -0.15648148148148147]","[1, 1, 1]","[0, 0, 0]","[0, 0, 0]","[4.55916359999901, 9.275546299999405, 13.70888500000001]",0.016655880004691426,13.725496080005541,['A1'],['B1'],['C2'],['yellow'],['salmon'],['blue'],1068.3404931000005,None,5.0,2.547467100001086,1068.3404931000005,None,1071.4908801000001,None,3.0,4.648184899999251,1079.057083900001,None,2.0,2.4984525999989273,1075.640578300001,None,4.0,3.4317480999998224,<function functionImportanceA at 0x0000021292C617B8>,<function functionImportanceC at 0x0000021292D34840>,<function functionImportanceB at 0x000002129249C730>,,,3.0,4.648184899999251,4.0,2.3646349999999074,6.0,3.3481766000004427,<function functiondiffB at 0x0000021292C61378>,<function functiondiffA at 0x0000021292C61BF8>,<function functiondiffC at 0x0000021292D34378>,,,,,1054.1635199000011,1087.3070392999998,None,1085.0571283999998,None,1081.5570134000009,None,12,001,2022_Jul_12_1417,2leo,2021.2.3,59.937844454755485,
3,18,Plan your Saturday night ,Stimuli/18A1.jpg,Stimuli/18A2.jpg,Stimuli/18A3.jpg,Stimuli/18B1.jpg,Stimuli/18B2.jpg,Stimuli/18B3.jpg,Stimuli/18C1.jpg,Stimuli/18C2.jpg,Stimuli/18C3.jpg,,,,,0,15,15,18,,,,,,,,1096.0066908999997,None,1097.0068081000009,None,1103.0066328000012,None,"[0.399, -0.003]","[-0.2, 0.346]","[-0.203, -0.347]","[0.306, 0.255]","[-0.377, 0.138]","[0.066, -0.395]","[0.07, 0.393]","[-0.378, -0.136]","[0.304, -0.26]",,15.37001662000148,5.137127820000387,10.437565120000727,"[0.27685185185185185, -0.37962962962962965, -0.18981481481481483]","[0.2351851851851852, -0.10740740740740741, -0.35555555555555557]","[1, 1, 1]","[0, 0, 0]","[0, 0, 0]","[5.125621699999101, 10.425775300000168, 15.358632499999658]",0.010749620001661242,15.369325720001143,['A3'],['B1'],['C2'],['salmon'],['yellow'],['blue'],1119.9724607999997,None,7.0,1.963445999999749,1119.9724607999997,None,1125.0059203,None,10.0,5.898174499998277,1121.9558756000006,None,9.0,2.980892599998697,1130.9221963,None,2.0,2.7149399000009,<function functionImportanceB at 0x0000021292D34400>,<function functionImportanceA at 0x00000212927EE7B8>,<function functionImportanceC at 0x0000021292D34510>,,,7.0,5.898174499998277,6.0,2.347903400001087,3.0,2.6146736000009696,<function functiondiffC at 0x0000021292C61840>,<function functiondiffA at 0x0000021292C616A8>,<function functiondiffB at 0x0000021292C611E0>,,,,,1104.1294749999997,1133.6224235000009,None,1135.872298100001,None,1138.2220818999995,None,12,001,2022_Jul_12_1417,2leo,2021.2.3,59.937844454755485,
3,29,Plan a day in the mountains ,Stimuli/29A1.jpg,Stimuli/29A2.jpg,Stimuli/29A3.jpg,Stimuli/29B1.jpg,Stimuli/29B2.jpg,Stimuli/29B3.jpg,Stimuli/29C1.jpg,Stimuli/29C2.jpg,Stimuli/29C3.jpg,,,,,0,16,16,29,,,,,,,,1140.3719457999996,None,1141.3720672,None,1147.3738133000006,None,"[-0.2, 0.346]","[0.399, -0.003]","[-0.203, -0.347]","[-0.377, 0.138]","[0.306, 0.255]","[0.066, -0.395]","[-0.378, -0.136]","[0.07, 0.393]","[0.304, -0.26]",,7.640725280001789,5.340849280002658,12.224439880003047,"[-0.38055555555555554, 0.44814814814814813, -0.4074074074074074]","[0.11574074074074074, 0.0, -0.11203703703703703]","[1, 1, 1]","[0, 0, 0]","[0, 0, 0]","[5.327184600000692, 7.627217799999926, 12.210477500000707]",0.012994480002817,12.223289580002529,['A2'],['B1'],['C1'],['salmon'],['blue'],['yellow'],1161.2714711000008,None,9.0,1.9967684999992343,1161.2714711000008,None,1163.388382000001,None,10.0,3.1981402000001253,1166.5382413999996,None,6.0,3.9151461999990715,1170.4881829000005,None,6.0,3.882181099999798,<function functionImportanceA at 0x0000021292D34048>,<function functionImportanceB at 0x0000021292D349D8>,<function functionImportanceC at 0x0000021292D347B8>,,,1.0,3.1981402000001253,0.0,3.247873999998774,3.0,2.531196699999782,<function functiondiffA at 0x0000021292D34D08>,<function functiondiffC at 0x00000212927EE378>,<function functiondiffB at 0x0000021292D34950>,,,,,1148.5756352999997,1177.6213172000007,None,1174.3712703,None,1180.9210951999994,None,12,001,2022_Jul_12_1417,2leo,2021.2.3,59.937844454755485,
3,37,Plan your cleaning routine ,Stimuli/37A1.jpg,Stimuli/37A2.jpg,Stimuli/37A3.jpg,Stimuli/37B1.jpg,Stimuli/37B2.jpg,Stimuli/37B3.jpg,Stimuli/37C1.jpg,Stimuli/37C2.jpg,Stimuli/37C3.jpg,,,,,0,17,17,37,,,,,,,,1182.9708458000005,None,1183.9710054000006,None,1189.9709211999998,None,"[-0.2, 0.346]","[0.399, -0.003]","[-0.203, -0.347]","[-0.377, 0.138]","[0.306, 0.255]","[0.066, -0.395]","[-0.378, -0.136]","[0.07, 0.393]","[0.304, -0.26]",,7.468559220000316,18.75173542000084,14.018848920000892,"[-0.1537037037037037, 0.06018518518518518, 0.2638888888888889]","[-0.3101851851851852, 0.3388888888888889, 0.2675925925925926]","[1, 1, 1]","[0, 0, 0]","[0, 0, 0]","[7.4663497999990796, 14.016252399998848, 18.74940229999993]",0.0015664200000173878,18.750674920000165,['A3'],['B2'],['C2'],['salmon'],['blue'],['yellow'],1210.3369046999996,None,5.0,4.1639997999991465,1210.3369046999996,None,1221.9365268000001,None,6.0,3.5315353000005416,1214.5535868000006,None,9.0,3.481057500001043,1218.053331000001,None,4.0,3.848405199998524,<function functionImportanceB at 0x0000021292D34E18>,<function functionImportanceC at 0x0000021292D34598>,<function functionImportanceA at 0x0000021292D34BF8>,,,9.0,3.5315353000005416,7.0,2.6808944000003976,2.0,2.797732000000906,<function functiondiffA at 0x00000212927EE8C8>,<function functiondiffB at 0x00000212927EE840>,<function functiondiffC at 0x0000021292D341E0>,,,,,1191.1043212000004,1230.9697937,None,1225.4532106000006,None,1228.153360100001,None,12,001,2022_Jul_12_1417,2leo,2021.2.3,59.937844454755485,
3,5,Plan a birthday party for your younger self when you turn eight,Stimuli/5A1.jpg,Stimuli/5A2.jpg,Stimuli/5A3.jpg,Stimuli/5B1.jpg,Stimuli/5B2.jpg,Stimuli/5B3.jpg,Stimuli/5C1.jpg,Stimuli/5C2.jpg,Stimuli/5C3.jpg,,,,,0,18,18,5,,,,,,,,1232.9861942999996,None,1233.9863733000002,None,1239.986253000001,None,"[-0.2, 0.346]","[0.399, -0.003]","[-0.203, -0.347]","[-0.378, -0.136]","[0.07, 0.393]","[0.304, -0.26]","[-0.377, 0.138]","[0.306, 0.255]","[0.066, -0.395]",,13.00758492002933,4.008290620029584,22.974835420031013,"[0.06759259259259259, 0.4027777777777778, 0.35833333333333334]","[0.35555555555555557, 0.032407407407407406, 0.21388888888888888]","[1, 1, 1]","[0, 0, 0]","[0, 0, 0]","[3.9951977000000625, 12.99477939999997, 22.961505100000068]",0.012195420029456727,22.973524820030434,['A2'],['B2'],['C2'],['yellow'],['salmon'],['blue'],1269.2685779000003,None,3.0,2.08013789999859,1269.2685779000003,None,1282.670832400001,None,4.0,5.464881900001274,1272.8853622000006,None,3.0,5.697769599999447,1277.7685457000007,None,8.0,2.898426499999914,<function functionImportanceB at 0x0000021292D34268>,<function functionImportanceC at 0x0000021294FC2950>,<function functionImportanceA at 0x0000021292C612F0>,,,9.0,5.464881900001274,8.0,3.281315199999881,3.0,2.564393700000437,<function functiondiffB at 0x0000021292D34730>,<function functiondiffA at 0x0000021292C61158>,<function functiondiffC at 0x0000021292D34F28>,,,,,1245.8448829999998,1291.5014345,None,1288.8519235000003,None,1285.8350656000002,None,12,001,2022_Jul_12_1417,2leo,2021.2.3,59.937844454755485,
3,14,Plan your own Pizza for dinner,Stimuli/14A1.jpg,Stimuli/14A2.jpg,Stimuli/14A3.jpg,Stimuli/14B1.jpg,Stimuli/14B2.jpg,Stimuli/14B3.jpg,Stimuli/14C1.jpg,Stimuli/14C2.jpg,Stimuli/14C3.jpg,,,,,0,19,19,14,,,,,,,,1293.5179363999996,None,1294.5179597000006,None,1300.5182213999997,None,"[0.066, -0.395]","[0.306, 0.255]","[-0.377, 0.138]","[0.304, -0.26]","[0.07, 0.393]","[-0.378, -0.136]","[-0.203, -0.347]","[0.399, -0.003]","[-0.2, 0.346]",,14.839949760000309,27.52308956000161,12.240343560000838,"[-0.1638888888888889, -0.38333333333333336, 0.075]","[0.3277777777777778, 0.09722222222222222, 0.39166666666666666]","[1, 1, 1]","[0, 0, 0]","[0, 0, 0]","[12.234806799999205, 14.834892599999876, 27.517820999999458]",0.004461559999981546,27.52213196000048,['A3'],['B2'],['C3'],['yellow'],['salmon'],['blue'],1329.7502802,None,2.0,2.379854000000705,1329.7502802,None,1339.683739,None,4.0,3.1997897999990528,1332.3003621999997,None,4.0,3.6315077999988716,1335.8503404000003,None,2.0,3.748614500000258,<function functionImportanceB at 0x0000021294FC2378>,<function functionImportanceC at 0x0000021294FC22F0>,<function functionImportanceA at 0x0000021294FC2730>,,,4.0,3.1997897999990528,2.0,2.7311696999986452,8.0,2.2977651999990485,<function functiondiffC at 0x0000021292C61F28>,<function functiondiffB at 0x0000021292D34D90>,<function functiondiffA at 0x0000021292D34C80>,,,,,1301.7461679000007,1342.8002142000005,None,1350.0499808000004,None,1347.750090200001,None,12,001,2022_Jul_12_1417,2leo,2021.2.3,59.937844454755485,
3,0,Plan a barbecue,Stimuli/0A1.jpg,Stimuli/0A2.jpg,Stimuli/0A3.jpg,Stimuli/0B1.jpg,Stimuli/0B2.jpg,Stimuli/0B3.jpg,Stimuli/0C1.jpg,Stimuli/0C2.jpg,Stimuli/0C3.jpg,,,,,0,20,20,0,,,,,,,,1352.2995174000007,None,1353.2997698,None,1359.299799100001,None,"[-0.2, 0.346]","[-0.203, -0.347]","[0.399, -0.003]","[-0.378, -0.136]","[0.304, -0.26]","[0.07, 0.393]","[-0.377, 0.138]","[0.066, -0.395]","[0.306, 0.255]",,12.147724720009137,6.998308120009824,19.981878320009855,"[0.36018518518518516, -0.2212962962962963, 0.33055555555555555]","[-0.24259259259259258, 0.3, 0.22685185185185186]","[1, 1, 1]","[0, 0, 0]","[0, 0, 0]","[6.982653400000345, 12.132333600000493, 19.965876899999785]",0.014882320008837269,19.980299120010386,['A1'],['B2'],['C3'],['blue'],['salmon'],['yellow'],1382.2155648000007,None,9.0,1.6150909000007232,1382.2155648000007,None,1391.5656118000006,None,10.0,4.698580399999628,1383.8991860000006,None,9.0,2.928046999999424,1386.8323801000006,None,4.0,3.364637299999231,<function functionImportanceB at 0x0000021294FC2BF8>,<function functionImportanceC at 0x0000021294FC27B8>,<function functionImportanceA at 0x0000021294FC2AE8>,,,2.0,4.698580399999628,4.0,3.0312670999992406,1.0,2.614925599998969,<function functiondiffC at 0x0000021294FC2048>,<function functiondiffB at 0x0000021294FC28C8>,<function functiondiffA at 0x0000021294FC2488>,,,,,1361.7837462999996,1394.915546100001,None,1400.4988547000012,None,1397.4654694,None,12,001,2022_Jul_12_1417,2leo,2021.2.3,59.937844454755485,
3,31,Plan your order at a restaurant    ,Stimuli/31A1.jpg,Stimuli/31A2.jpg,Stimuli/31A3.jpg,Stimuli/31B1.jpg,Stimuli/31B2.jpg,Stimuli/31B3.jpg,Stimuli/31C1.jpg,Stimuli/31C2.jpg,Stimuli/31C3.jpg,,,,,0,21,21,31,,,,,,,,1402.6648516999994,None,1403.6651762000001,None,1409.6650807999995,None,"[-0.377, 0.138]","[0.306, 0.255]","[0.066, -0.395]","[-0.2, 0.346]","[0.399, -0.003]","[-0.203, -0.347]","[-0.378, -0.136]","[0.07, 0.393]","[0.304, -0.26]",,6.523518680009147,14.20567008000944,17.489205080008105,"[0.062037037037037036, -0.16296296296296298, 0.05185185185185185]","[-0.3592592592592593, 0.32592592592592595, 0.4388888888888889]","[1, 1, 1]","[0, 0, 0]","[0, 0, 0]","[6.511814800000138, 14.193841000000248, 17.477043400002003]",0.011109580009360798,17.488055880010506,['A3'],['B1'],['C2'],['yellow'],['blue'],['salmon'],1430.2476588999998,None,3.0,2.0800804999998945,1430.2476588999998,None,1442.416982499999,None,1.0,4.881765900001483,1437.930843099999,None,8.0,2.9981813000013062,1432.4312462000016,None,4.0,5.5135817999980645,<function functionImportanceC at 0x0000021292D34EA0>,<function functionImportanceB at 0x0000021292D34488>,<function functionImportanceA at 0x0000021292D34158>,,,4.0,4.881765900001483,6.0,5.164726499999233,8.0,3.230650199999218,<function functiondiffB at 0x0000021294FC2C80>,<function functiondiffA at 0x0000021294FC2D90>,<function functiondiffC at 0x0000021294FC2620>,,,,,1412.2999485,1454.2471925999998,None,1449.397464400001,None,1445.8142904999986,None,12,001,2022_Jul_12_1417,2leo,2021.2.3,59.937844454755485,
3,16,Plan a delicious cake for the birthday of a friend,Stimuli/16A1.jpg,Stimuli/16A2.jpg,Stimuli/16A3.jpg,Stimuli/16B1.jpg,Stimuli/16B2.jpg,Stimuli/16B3.jpg,Stimuli/16C1.jpg,Stimuli/16C2.jpg,Stimuli/16C3.jpg,,,,,0,22,22,16,,,,,,,,1456.363416600001,None,1457.3637831000015,None,1463.3638320999999,None,"[0.07, 0.393]","[-0.378, -0.136]","[0.304, -0.26]","[0.399, -0.003]","[-0.2, 0.346]","[-0.203, -0.347]","[0.306, 0.255]","[-0.377, 0.138]","[0.066, -0.395]",,16.345257119999587,20.478552320000745,6.745708419999573,"[0.2953703703703704, 0.30462962962962964, -0.12129629629629629]","[0.23148148148148148, -0.23796296296296296, 0.37592592592592594]","[1, 1, 1]","[0, 0, 0]","[0, 0, 0]","[6.728020999998989, 16.32794649999778, 20.461071899997478]",0.016683519999787677,20.477558919999865,['A3'],['B2'],['C1'],['salmon'],['yellow'],['blue'],1485.7627262999995,None,6.0,1.697049499998684,1485.7627262999995,None,1493.9794813000008,None,7.0,3.031873899999482,1490.712969600001,None,4.0,3.4318060999976296,1487.6130836000011,None,3.0,2.9479619000012462,<function functionImportanceC at 0x00000212995CC598>,<function functionImportanceB at 0x00000212995CC1E0>,<function functionImportanceA at 0x0000021294FC20D0>,,,4.0,3.031873899999482,3.0,2.6646815999993123,5.0,2.815134799999214,<function functiondiffC at 0x0000021294FC2840>,<function functiondiffA at 0x0000021294FC2598>,<function functiondiffB at 0x0000021294FC2510>,,,,,1464.8317282999997,1496.9794164000014,None,1499.7793960000017,None,1502.5126105999989,None,12,001,2022_Jul_12_1417,2leo,2021.2.3,59.937844454755485,
3,19,Plan how you want your garden to look like,Stimuli/19A1.jpg,Stimuli/19A2.jpg,Stimuli/19A3.jpg,Stimuli/19B1.jpg,Stimuli/19B2.jpg,Stimuli/19B3.jpg,Stimuli/19C1.jpg,Stimuli/19C2.jpg,Stimuli/19C3.jpg,,,,,0,23,23,19,,,,,,,,1504.795488300002,None,1505.7958321000006,None,1511.7958790000012,None,"[-0.377, 0.138]","[0.306, 0.255]","[0.066, -0.395]","[-0.378, -0.136]","[0.07, 0.393]","[0.304, -0.26]","[-0.2, 0.346]","[0.399, -0.003]","[-0.203, -0.347]",,3.536568020019331,10.820119420019182,7.803612620016793,"[-0.37777777777777777, 0.45185185185185184, 0.10462962962962963]","[0.1111111111111111, -0.012962962962962963, 0.32407407407407407]","[1, 1, 1]","[0, 0, 0]","[0, 0, 0]","[3.5292670000017097, 7.795638399999007, 10.812468200001604]",0.006896420018165372,10.819109120016947,['A1'],['B2'],['C2'],['salmon'],['blue'],['yellow'],1526.745090299999,None,10.0,3.213098299998819,1526.745090299999,None,1530.045290099999,None,8.0,3.2474157999968156,1538.911662300001,None,4.0,3.931718499999988,1534.6615686000005,None,9.0,4.498708899998746,<function functionImportanceA at 0x0000021294FC21E0>,<function functionImportanceC at 0x00000212995CC950>,<function functionImportanceB at 0x00000212995CC158>,,,4.0,3.2474157999968156,5.0,2.23133450000023,3.0,2.498075699997571,<function functiondiffC at 0x0000021294FC2400>,<function functiondiffB at 0x0000021294FC29D8>,<function functiondiffA at 0x0000021294FC2158>,,,,,1515.4658406999988,1542.1112319999993,None,1548.9780605000014,None,1546.694733700002,None,12,001,2022_Jul_12_1417,2leo,2021.2.3,59.937844454755485,
3,12,Plan the ingredients to mix yourself a cocktail,Stimuli/12A1.jpg,Stimuli/12A2.jpg,Stimuli/12A3.jpg,Stimuli/12B1.jpg,Stimuli/12B2.jpg,Stimuli/12B3.jpg,Stimuli/12C1.jpg,Stimuli/12C2.jpg,Stimuli/12C3.jpg,,,,,0,24,24,12,,,,,,,,1550.7111523999993,None,1551.7111987999997,None,1557.7113513000004,None,"[0.07, 0.393]","[0.304, -0.26]","[-0.378, -0.136]","[0.399, -0.003]","[-0.203, -0.347]","[-0.2, 0.346]","[0.306, 0.255]","[0.066, -0.395]","[-0.377, 0.138]",,9.558705780003947,13.558598180003173,5.492523080003593,"[0.27037037037037037, 0.08611111111111111, -0.20555555555555555]","[0.22685185185185186, 0.36666666666666664, -0.30925925925925923]","[1, 1, 1]","[0, 0, 0]","[0, 0, 0]","[5.477948200001265, 9.544681700001092, 13.544228499999008]",0.013579480004409561,13.557733780002309,['A1'],['B2'],['C1'],['salmon'],['blue'],['yellow'],1572.9272044999998,None,2.0,2.1138188000004448,1572.9272044999998,None,1580.8272719000015,None,1.0,2.698610799998278,1577.9606698999996,None,8.0,2.848490299998957,1575.144091000002,None,7.0,2.8147969000019657,<function functionImportanceC at 0x00000212995CC048>,<function functionImportanceB at 0x00000212995CCE18>,<function functionImportanceA at 0x00000212995CCF28>,,,4.0,2.698610799998278,8.0,3.164412499998434,7.0,4.197469999999157,<function functiondiffB at 0x00000212995CCEA0>,<function functiondiffA at 0x00000212995CC2F0>,<function functiondiffC at 0x00000212995CCBF8>,,,,,1558.8974210999986,1590.8936673999997,None,1587.7104727000005,None,1583.4938165999993,None,12,001,2022_Jul_12_1417,2leo,2021.2.3,59.937844454755485,
3,25,Plan how you want to read a book in your free time ,Stimuli/25A1.jpg,Stimuli/25A2.jpg,Stimuli/25A3.jpg,Stimuli/25B1.jpg,Stimuli/25B2.jpg,Stimuli/25B3.jpg,Stimuli/25C1.jpg,Stimuli/25C2.jpg,Stimuli/25C3.jpg,,,,,0,25,25,25,,,,,,,,1592.7433562000006,None,1593.7435221000014,None,1599.7434805000012,None,"[0.399, -0.003]","[-0.203, -0.347]","[-0.2, 0.346]","[0.07, 0.393]","[0.304, -0.26]","[-0.378, -0.136]","[0.306, 0.255]","[0.066, -0.395]","[-0.377, 0.138]",,4.3969771600059175,17.430213360006746,10.764121960004559,"[0.38055555555555554, -0.3574074074074074, 0.3435185185185185]","[0.006481481481481481, 0.09722222222222222, -0.21851851851851853]","[1, 1, 1]","[0, 0, 0]","[0, 0, 0]","[4.387334400002146, 10.75380640000003, 17.42015639999954]",0.009241660005500307,17.429252060006547,['A1'],['B2'],['C3'],['blue'],['yellow'],['salmon'],1619.1260714000018,None,7.0,2.0802794999981415,1619.1260714000018,None,1624.209258400002,None,10.0,2.865188699997816,1621.3096307000014,None,9.0,2.914309299998422,1627.3938822000018,None,7.0,3.181854899998143,<function functionImportanceB at 0x00000212995CCD90>,<function functionImportanceA at 0x00000212995CC488>,<function functionImportanceC at 0x00000212995CC840>,,,5.0,2.865188699997816,1.0,2.431373400002485,3.0,2.498030300001119,<function functiondiffC at 0x00000212995CC400>,<function functiondiffB at 0x00000212995CC620>,<function functiondiffA at 0x00000212995CC0D0>,,,,,1601.2365978999987,1630.3424065,None,1635.7258956000005,None,1633.2257903999998,None,12,001,2022_Jul_12_1417,2leo,2021.2.3,59.937844454755485,
3,44,Plan a party at your place,Stimuli/44A1.jpg,Stimuli/44A2.jpg,Stimuli/44A3.jpg,Stimuli/44B1.jpg,Stimuli/44B2.jpg,Stimuli/44B3.jpg,Stimuli/44C1.jpg,Stimuli/44C2.jpg,Stimuli/44C3.jpg,,,,,0,26,26,44,,,,,,,,1637.6753008999985,None,1638.6757166999996,None,1644.6757717,None,"[0.07, 0.393]","[-0.378, -0.136]","[0.304, -0.26]","[0.306, 0.255]","[-0.377, 0.138]","[0.066, -0.395]","[0.399, -0.003]","[-0.2, 0.346]","[-0.203, -0.347]",,8.77606790000209,4.6269760000031965,12.610026000002108,"[0.09074074074074075, 0.046296296296296294, 0.36944444444444446]","[-0.33425925925925926, 0.36018518518518516, -0.022222222222222223]","[1, 1, 1]","[0, 0, 0]","[0, 0, 0]","[4.612055199999304, 8.76162420000037, 12.594966699998622]",0.014051500002096873,12.608843400004844,['A1'],['B3'],['C1'],['yellow'],['blue'],['salmon'],1658.9084145999987,None,9.0,1.6632704999974521,1658.9084145999987,None,1660.6252620000014,None,10.0,3.697813499999029,1664.3582338000015,None,8.0,2.8653324999977485,1667.2416808999988,None,8.0,3.9982727999995404,<function functionImportanceA at 0x00000212995CC378>,<function functionImportanceB at 0x00000212995CCD08>,<function functionImportanceC at 0x0000021294FC2B70>,,,3.0,3.697813499999029,2.0,5.9644428999999946,1.0,3.781345899998996,<function functiondiffC at 0x0000021294FC26A8>,<function functiondiffB at 0x0000021294FC2A60>,<function functiondiffA at 0x00000212995CC730>,,,,,1645.8275596999993,1671.2249278000018,None,1682.3746629000016,None,1678.591339900002,None,12,001,2022_Jul_12_1417,2leo,2021.2.3,59.937844454755485,
3,17,Plan a day in Barcelona with a friend who is new to the city,Stimuli/17A1.jpg,Stimuli/17A2.jpg,Stimuli/17A3.jpg,Stimuli/17B1.jpg,Stimuli/17B2.jpg,Stimuli/17B3.jpg,Stimuli/17C1.jpg,Stimuli/17C2.jpg,Stimuli/17C3.jpg,,,,,0,27,27,17,,,,,,,,1687.8573125000003,None,1688.8576944000015,None,1694.8577198999992,None,"[0.07, 0.393]","[0.304, -0.26]","[-0.378, -0.136]","[0.399, -0.003]","[-0.203, -0.347]","[-0.2, 0.346]","[0.306, 0.255]","[0.066, -0.395]","[-0.377, 0.138]",,7.074193540000124,3.4909595400022226,12.641133439999976,"[-0.225, -0.3925925925925926, 0.08703703703703704]","[-0.3648148148148148, -0.1814814814814815, -0.3962962962962963]","[1, 1, 1]","[0, 0, 0]","[0, 0, 0]","[3.4772340999988955, 7.060705699997925, 12.62722130000111]",0.01289404000272043,12.639845640002022,['A3'],['B2'],['C2'],['yellow'],['blue'],['salmon'],1709.1403204000017,None,6.0,1.8467297999995935,1709.1403204000017,None,1714.3569390000011,None,7.0,3.714129799998773,1718.0570377000004,None,8.0,2.7649596000010206,1711.0571750999989,None,4.0,3.2478154999989783,<function functionImportanceC at 0x00000212998852F0>,<function functionImportanceA at 0x00000212995CCC80>,<function functionImportanceB at 0x0000021299885730>,,,8.0,3.714129799998773,6.0,2.9310549999972864,2.0,3.2977663000019675,<function functiondiffB at 0x00000212995CC268>,<function functiondiffC at 0x0000021299885AE8>,<function functiondiffA at 0x0000021294FC2E18>,,,,,1696.0276095000008,1724.1068104000005,None,1727.223337200001,None,1720.8067955000006,None,12,001,2022_Jul_12_1417,2leo,2021.2.3,59.937844454755485,
3,7,Plan your Sunday breakfast ,Stimuli/7A1.jpg,Stimuli/7A2.jpg,Stimuli/7A3.jpg,Stimuli/7B1.jpg,Stimuli/7B2.jpg,Stimuli/7B3.jpg,Stimuli/7C1.jpg,Stimuli/7C2.jpg,Stimuli/7C3.jpg,,,,,0,28,28,7,,,,,,,,1729.6728508999986,None,1730.6731813000006,None,1736.673335899999,None,"[0.399, -0.003]","[-0.203, -0.347]","[-0.2, 0.346]","[0.306, 0.255]","[0.066, -0.395]","[-0.377, 0.138]","[0.07, 0.393]","[0.304, -0.26]","[-0.378, -0.136]",,11.322489480029617,4.673069380030938,8.322933680028655,"[-0.36574074074074076, 0.11481481481481481, 0.36944444444444446]","[0.09537037037037037, 0.3453703703703704, 0.032407407407407406]","[1, 1, 1]","[0, 0, 0]","[0, 0, 0]","[4.668440400000691, 8.318212300000596, 11.318349100001797]",0.003736780028702924,11.321788980028941,['A1'],['B3'],['C1'],['salmon'],['blue'],['yellow'],1754.4725099999996,None,9.0,2.4806071999992128,1754.4725099999996,None,1758.7558237000012,None,7.0,4.897555300001841,1767.855692699999,None,9.0,5.782028800000262,1763.1404704999986,None,8.0,4.032017600002291,<function functionImportanceA at 0x00000212998856A8>,<function functionImportanceC at 0x0000021299885268>,<function functionImportanceB at 0x0000021299885488>,,,4.0,4.897555300001841,4.0,2.814835099998163,2.0,2.73116680000021,<function functiondiffC at 0x0000021294FC2F28>,<function functiondiffB at 0x0000021294FC2EA0>,<function functiondiffA at 0x00000212995CC510>,,,,,1742.6906426999994,1772.1066538000014,None,1778.2053960000012,None,1775.6221455000014,None,12,001,2022_Jul_12_1417,2leo,2021.2.3,59.937844454755485,
3,40,Plan to see a sports event ,Stimuli/40A1.jpg,Stimuli/40A2.jpg,Stimuli/40A3.jpg,Stimuli/40B1.jpg,Stimuli/40B2.jpg,Stimuli/40B3.jpg,Stimuli/40C1.jpg,Stimuli/40C2.jpg,Stimuli/40C3.jpg,,,,,0,29,29,40,,,,,,,,1780.0548963,None,1781.0552940999987,None,1787.0552153999997,None,"[0.066, -0.395]","[0.306, 0.255]","[-0.377, 0.138]","[-0.203, -0.347]","[0.399, -0.003]","[-0.2, 0.346]","[0.304, -0.26]","[0.07, 0.393]","[-0.378, -0.136]",,10.395284360001824,7.095754060002946,4.579319260003103,"[0.0712962962962963, -0.1787037037037037, 0.287962962962963]","[0.3287037037037037, 0.27870370370370373, 0.25925925925925924]","[1, 1, 1]","[0, 0, 0]","[0, 0, 0]","[4.561940899999172, 7.0784538999978395, 10.378412399997615]",0.016362960002879845,10.394577460003347,['A2'],['B3'],['C2'],['salmon'],['yellow'],['blue'],1799.3045669999992,None,7.0,1.764003500000399,1799.3045669999992,None,1801.2213205000007,None,8.0,3.098067399998399,1807.4046998000013,None,9.0,3.315102399999887,1804.3046600000016,None,2.0,2.9314545999986876,<function functionImportanceA at 0x0000021299885C80>,<function functionImportanceC at 0x0000021299885400>,<function functionImportanceB at 0x0000021299885378>,,,2.0,3.098067399998399,4.0,2.9981549000003724,1.0,3.597616000002745,<function functiondiffC at 0x00000212995CCAE8>,<function functiondiffA at 0x0000021299885510>,<function functiondiffB at 0x00000212995CC9D8>,,,,,1788.4437313000017,1810.5046236000017,None,1813.8378620000003,None,1816.8877915000012,None,12,001,2022_Jul_12_1417,2leo,2021.2.3,59.937844454755485,
3,41,Plan how you want to have dinner tonight ,Stimuli/41A1.jpg,Stimuli/41A2.jpg,Stimuli/41A3.jpg,Stimuli/41B1.jpg,Stimuli/41B2.jpg,Stimuli/41B3.jpg,Stimuli/41C1.jpg,Stimuli/41C2.jpg,Stimuli/41C3.jpg,,,,,0,30,30,41,,,,,,,,1824.1373975999995,None,1825.1373956999996,None,1831.1372893000007,None,"[-0.2, 0.346]","[-0.203, -0.347]","[0.399, -0.003]","[-0.378, -0.136]","[0.304, -0.26]","[0.07, 0.393]","[-0.377, 0.138]","[0.066, -0.395]","[0.306, 0.255]",,8.885583080002107,6.702426080002624,18.252116780004144,"[0.08425925925925926, 0.34814814814814815, -0.36574074074074076]","[0.3731481481481482, 0.009259259259259259, 0.06851851851851852]","[1, 1, 1]","[0, 0, 0]","[0, 0, 0]","[6.690327800002706, 8.873719000002893, 18.23994070000117]",0.011241580003115814,18.251045780001732,['A3'],['B3'],['C1'],['blue'],['yellow'],['salmon'],1851.2198551000001,None,3.0,2.9966554999991786,1851.2198551000001,None,1864.7197062999985,None,9.0,2.531576999997924,1861.2365013000017,None,8.0,3.4486235000003944,1854.4534287999995,None,3.0,6.930688800002827,<function functionImportanceC at 0x0000021299885D08>,<function functionImportanceB at 0x00000212998851E0>,<function functionImportanceA at 0x00000212998850D0>,,,10.0,2.531576999997924,4.0,2.481519600001775,6.0,2.597623100002238,<function functiondiffC at 0x0000021299885B70>,<function functiondiffB at 0x0000021299885F28>,<function functiondiffA at 0x00000212998858C8>,,,,,1832.4963043999996,1867.252909499999,None,1872.719572500002,None,1870.1028976999987,None,12,001,2022_Jul_12_1417,2leo,2021.2.3,59.937844454755485,
3,11,Plan a hike in nature on a free day,Stimuli/11A1.jpg,Stimuli/11A2.jpg,Stimuli/11A3.jpg,Stimuli/11B1.jpg,Stimuli/11B2.jpg,Stimuli/11B3.jpg,Stimuli/11C1.jpg,Stimuli/11C2.jpg,Stimuli/11C3.jpg,,,,,0,31,31,11,,,,,,,,1874.7191923999999,None,1875.7195025,None,1881.7195063,None,"[0.066, -0.395]","[0.306, 0.255]","[-0.377, 0.138]","[-0.203, -0.347]","[0.399, -0.003]","[-0.2, 0.346]","[0.304, -0.26]","[0.07, 0.393]","[-0.378, -0.136]",,17.09451629999967,3.1284421999989718,11.412022600001364,"[0.39351851851851855, -0.3509259259259259, 0.24537037037037038]","[-0.004629629629629629, -0.08611111111111111, 0.28703703703703703]","[1, 1, 1]","[0, 0, 0]","[0, 0, 0]","[3.1211057000000437, 11.404336700001295, 17.087401199998567]",0.006573200000275392,17.093863599999167,['A2'],['B2'],['C3'],['salmon'],['yellow'],['blue'],1900.4518720999986,None,5.0,2.6968647000030614,1900.4518720999986,None,1906.302093000002,None,8.0,5.014703799999552,1903.2188566000004,None,10.0,3.0646595999969577,1911.3352083999998,None,6.0,2.864916299997276,<function functionImportanceB at 0x0000021292D34AE8>,<function functionImportanceA at 0x0000021292D340D0>,<function functionImportanceC at 0x00000212998859D8>,,,4.0,5.014703799999552,9.0,2.4146287999974447,3.0,2.13205569999991,<function functiondiffA at 0x0000021299885840>,<function functiondiffB at 0x0000021299885E18>,<function functiondiffC at 0x0000021299BD0378>,,,,,1882.8801039999998,1918.7681086000011,None,1914.1851797000018,None,1916.6183474999998,None,12,001,2022_Jul_12_1417,2leo,2021.2.3,59.937844454755485,
3,24,Plan your Monday morning on a workday ,Stimuli/24A1.jpg,Stimuli/24A2.jpg,Stimuli/24A3.jpg,Stimuli/24B1.jpg,Stimuli/24B2.jpg,Stimuli/24B3.jpg,Stimuli/24C1.jpg,Stimuli/24C2.jpg,Stimuli/24C3.jpg,,,,,0,32,32,24,,,,,,,,1921.069225700001,None,1922.0681996999992,None,1928.0683624000012,None,"[-0.2, 0.346]","[-0.203, -0.347]","[0.399, -0.003]","[-0.377, 0.138]","[0.066, -0.395]","[0.306, 0.255]","[-0.378, -0.136]","[0.304, -0.26]","[0.07, 0.393]",,14.12011922000238,4.904198219999671,9.171309620000102,"[0.06481481481481481, 0.03148148148148148, -0.13518518518518519]","[-0.3888888888888889, 0.36944444444444446, 0.3537037037037037]","[1, 1, 1]","[0, 0, 0]","[0, 0, 0]","[4.900699800000439, 9.167404399999214, 14.117063800000324]",0.002651319999131374,14.119701120001992,['A1'],['B2'],['C3'],['blue'],['yellow'],['salmon'],1943.8009329999986,None,8.0,2.080487900002481,1943.8009329999986,None,1951.7175400000015,None,6.0,2.4986107000004267,1948.7174836000013,None,5.0,2.9816624999984924,1945.9511110999993,None,9.0,2.7642259999993257,<function functionImportanceC at 0x0000021299BD0730>,<function functionImportanceB at 0x0000021299BD02F0>,<function functionImportanceA at 0x0000021292D34B70>,,,5.0,2.4986107000004267,3.0,2.3647132000005513,4.0,3.2979344000013953,<function functiondiffB at 0x0000021299885048>,<function functiondiffA at 0x0000021299885598>,<function functiondiffC at 0x0000021299885A60>,,,,,1929.1978860000017,1959.9173305000004,None,1957.5340399999986,None,1954.2174984000012,None,12,001,2022_Jul_12_1417,2leo,2021.2.3,59.937844454755485,
3,8,Plan the interior of your living-room ,Stimuli/8A1.jpg,Stimuli/8A2.jpg,Stimuli/8A3.jpg,Stimuli/8B1.jpg,Stimuli/8B2.jpg,Stimuli/8B3.jpg,Stimuli/8C1.jpg,Stimuli/8C2.jpg,Stimuli/8C3.jpg,,,,,0,33,33,8,,,,,,,,1961.6834705,None,1962.6836656000014,None,1968.6837947999993,None,"[-0.378, -0.136]","[0.07, 0.393]","[0.304, -0.26]","[-0.377, 0.138]","[0.306, 0.255]","[0.066, -0.395]","[-0.2, 0.346]","[0.399, -0.003]","[-0.203, -0.347]",,5.518189460020949,17.934899160019995,7.818793160022324,"[-0.387037037037037, -0.18518518518518517, 0.2824074074074074]","[-0.1037037037037037, -0.3277777777777778, 0.22685185185185186]","[1, 1, 1]","[0, 0, 0]","[0, 0, 0]","[5.514372400000866, 7.814232599997922, 17.930731399999786]",0.0034133600202039815,17.933838060020207,['A1'],['B2'],['C3'],['blue'],['salmon'],['yellow'],1991.8661408000007,None,4.0,2.0805775000007998,1991.8661408000007,None,2003.699496199999,None,10.0,2.282135699999344,1995.7663657000012,None,7.0,4.680952099999558,2000.6325730999997,None,6.0,4.981932500002586,<function functionImportanceB at 0x0000021299BD0EA0>,<function functionImportanceC at 0x0000021299BD0950>,<function functionImportanceA at 0x0000021299BD08C8>,,,6.0,2.282135699999344,2.0,2.3814610999979777,9.0,3.1811864000010246,<function functiondiffC at 0x0000021299BD06A8>,<function functiondiffB at 0x0000021299BD0620>,<function functiondiffA at 0x0000021299BD0E18>,,,,,1973.4670035999989,2006.549422600001,None,2013.5159693999994,None,2010.8491835999994,None,12,001,2022_Jul_12_1417,2leo,2021.2.3,59.937844454755485,
3,28,Plan a one-week camping trip in Spain,Stimuli/28A1.jpg,Stimuli/28A2.jpg,Stimuli/28A3.jpg,Stimuli/28B1.jpg,Stimuli/28B2.jpg,Stimuli/28B3.jpg,Stimuli/28C1.jpg,Stimuli/28C2.jpg,Stimuli/28C3.jpg,,,,,0,34,34,28,,,,,,,,2015.4154273999993,None,2016.4156769,None,2022.4158097,None,"[0.399, -0.003]","[-0.203, -0.347]","[-0.2, 0.346]","[0.07, 0.393]","[0.304, -0.26]","[-0.378, -0.136]","[0.306, 0.255]","[0.066, -0.395]","[-0.377, 0.138]",,13.72403948000283,18.974299980003707,23.590986980001617,"[-0.1675925925925926, 0.30092592592592593, 0.275]","[-0.2833333333333333, -0.23333333333333334, 0.2824074074074074]","[1, 1, 1]","[0, 0, 0]","[0, 0, 0]","[13.710344799997984, 18.960346399999253, 23.576823700001114]",0.01317808000385412,23.589923080002336,['A2'],['B2'],['C1'],['salmon'],['blue'],['yellow'],2047.6647860000012,None,3.0,2.0637692999989667,2047.6647860000012,None,2049.798149800001,None,7.0,2.931223300001875,2052.7980070000012,None,10.0,2.5983526000018173,2055.4148270000005,None,7.0,2.5818597999968915,<function functionImportanceA at 0x0000021299BD0A60>,<function functionImportanceB at 0x0000021299BD0268>,<function functionImportanceC at 0x0000021299BD0D08>,,,8.0,2.931223300001875,9.0,2.7144619999999122,6.0,2.181472799999028,<function functiondiffA at 0x0000021299BD0400>,<function functiondiffC at 0x0000021299BD0598>,<function functiondiffB at 0x0000021299BD0F28>,,,,,2023.6028540000007,2060.6647230000017,None,2057.9313852999985,None,2064.4145653999985,None,12,001,2022_Jul_12_1417,2leo,2021.2.3,59.937844454755485,
3,10,Plan a restaurant visit with your family on the weekend ,Stimuli/10A1.jpg,Stimuli/10A2.jpg,Stimuli/10A3.jpg,Stimuli/10B1.jpg,Stimuli/10B2.jpg,Stimuli/10B3.jpg,Stimuli/10C1.jpg,Stimuli/10C2.jpg,Stimuli/10C3.jpg,,,,,0,35,35,10,,,,,,,,2066.114420599999,None,2067.114365199999,None,2073.1143887,None,"[0.07, 0.393]","[0.304, -0.26]","[-0.378, -0.136]","[0.399, -0.003]","[-0.203, -0.347]","[-0.2, 0.346]","[0.306, 0.255]","[0.066, -0.395]","[-0.377, 0.138]",,11.933972980015824,17.13400968001588,2.3678767800156493,"[-0.38796296296296295, -0.36666666666666664, -0.21203703703703702]","[0.1287037037037037, -0.06666666666666667, -0.29907407407407405]","[1, 1, 1]","[0, 0, 0]","[0, 0, 0]","[2.3512472000002163, 11.917802399999346, 17.117639600000985]",0.015557580012682592,17.132899080013885,['A3'],['B2'],['C3'],['salmon'],['yellow'],['blue'],2094.6801197999994,None,7.0,1.9468086000015319,2094.6801197999994,None,2096.7971184999988,None,9.0,2.98126240000056,2102.446570799999,None,7.0,5.831211500000791,2105.5301002000015,None,9.0,2.398281699999643,<function functionImportanceA at 0x0000021299885BF8>,<function functionImportanceB at 0x0000021299885620>,<function functionImportanceC at 0x0000021299BD09D8>,,,5.0,2.98126240000056,4.0,2.3145297999981267,7.0,2.9646138999996765,<function functiondiffC at 0x0000021299BD0840>,<function functiondiffB at 0x0000021299BD0510>,<function functiondiffA at 0x0000021299BD0B70>,,,,,2077.0925387999996,2107.9301086999985,None,2113.3800009000006,None,2111.1824664000014,None,12,001,2022_Jul_12_1417,2leo,2021.2.3,59.937844454755485,
3,20,Plan a tea party with your friends,Stimuli/20A1.jpg,Stimuli/20A2.jpg,Stimuli/20A3.jpg,Stimuli/20B1.jpg,Stimuli/20B2.jpg,Stimuli/20B3.jpg,Stimuli/20C1.jpg,Stimuli/20C2.jpg,Stimuli/20C3.jpg,,,,,0,36,36,20,,,,,,,,2115.1961451999996,None,2116.1964227999997,None,2122.1965127000003,None,"[-0.203, -0.347]","[0.399, -0.003]","[-0.2, 0.346]","[0.304, -0.26]","[0.07, 0.393]","[-0.378, -0.136]","[0.066, -0.395]","[0.306, 0.255]","[-0.377, 0.138]",,14.430866840019007,10.998277740018239,7.33158014001674,"[0.06851851851851852, 0.21574074074074073, -0.17314814814814813]","[-0.34074074074074073, -0.2037037037037037, 0.26851851851851855]","[1, 1, 1]","[0, 0, 0]","[0, 0, 0]","[7.32676580000043, 11.009595499999705, 14.42637829999876]",0.0038700400182278827,14.430092040016461,['A3'],['B1'],['C1'],['salmon'],['blue'],['yellow'],2140.729027199999,None,5.0,1.8300256000002264,2140.729027199999,None,2148.262260800002,None,2.0,2.8478115999969305,2145.162126700001,None,3.0,5.581355499998608,2151.0798060999987,None,4.0,2.231465199998638,<function functionImportanceB at 0x0000021299885950>,<function functionImportanceA at 0x0000021299BD0048>,<function functionImportanceC at 0x0000021299885D90>,,,8.0,2.8478115999969305,4.0,2.0318444000004092,4.0,3.1644693999987794,<function functiondiffC at 0x0000021299BD0D90>,<function functiondiffA at 0x00000212995CC6A8>,<function functiondiffB at 0x0000021299BD0C80>,,,,,2125.835666499999,2153.3123524000002,None,2156.4120533999994,None,2158.995275600002,None,12,001,2022_Jul_12_1417,2leo,2021.2.3,59.937844454755485,
3,26,Plan how to wash one round of your laundry ,Stimuli/26A1.jpg,Stimuli/26A2.jpg,Stimuli/26A3.jpg,Stimuli/26B1.jpg,Stimuli/26B2.jpg,Stimuli/26B3.jpg,Stimuli/26C1.jpg,Stimuli/26C2.jpg,Stimuli/26C3.jpg,,,,,0,37,37,26,,,,,,,,2161.146010299999,None,2162.147049899999,None,2168.161967799999,None,"[-0.377, 0.138]","[0.066, -0.395]","[0.306, 0.255]","[-0.378, -0.136]","[0.304, -0.26]","[0.07, 0.393]","[-0.2, 0.346]","[-0.203, -0.347]","[0.399, -0.003]",,14.244242900000245,17.811397600002238,9.228350299999875,"[-0.18055555555555555, -0.3398148148148148, -0.3685185185185185]","[0.33611111111111114, 0.14907407407407408, -0.16018518518518518]","[1, 1, 1]","[0, 0, 0]","[0, 0, 0]","[9.22103369999968, 14.23743149999791, 17.804338599999028]",0.006379500002367422,17.810197700000572,['A1'],['B1'],['C1'],['salmon'],['blue'],['yellow'],2187.6110467,None,8.0,1.879752599998028,2187.6110467,None,2192.4779463000013,None,10.0,2.948338199999853,2189.6280183000017,None,9.0,2.9146239000001515,2195.4442689999996,None,7.0,2.4843318999992334,<function functionImportanceB at 0x0000021299F998C8>,<function functionImportanceA at 0x0000021299F999D8>,<function functionImportanceC at 0x0000021299F99378>,,,6.0,2.948338199999853,4.0,2.065235500002018,6.0,3.0315680999992765,<function functiondiffB at 0x0000021299885158>,<function functiondiffC at 0x0000021299F996A8>,<function functiondiffA at 0x00000212998857B8>,,,,,2169.3225934,2200.9776972,None,2203.3277137000005,None,2197.9294359000014,None,12,001,2022_Jul_12_1417,2leo,2021.2.3,59.937844454755485,
3,22,Plan a beach day with your friends,Stimuli/22A1.jpg,Stimuli/22A2.jpg,Stimuli/22A3.jpg,Stimuli/22B1.jpg,Stimuli/22B2.jpg,Stimuli/22B3.jpg,Stimuli/22C1.jpg,Stimuli/22C2.jpg,Stimuli/22C3.jpg,,,,,0,38,38,22,,,,,,,,2204.9109917999995,None,2205.910848200001,None,2211.9107227999993,None,"[0.066, -0.395]","[-0.377, 0.138]","[0.306, 0.255]","[0.304, -0.26]","[-0.378, -0.136]","[0.07, 0.393]","[-0.203, -0.347]","[-0.2, 0.346]","[0.399, -0.003]",,11.421364900001208,8.154814800000167,4.788237400000071,"[-0.24537037037037038, 0.31203703703703706, 0.30648148148148147]","[0.29259259259259257, -0.18703703703703703, 0.22962962962962963]","[1, 1, 1]","[0, 0, 0]","[0, 0, 0]","[4.775736399999005, 8.142721600001096, 11.409375700000965]",0.011402100000850623,11.42035770000075,['A3'],['B1'],['C2'],['blue'],['salmon'],['yellow'],2224.960033700001,None,7.0,2.6966682999991463,2224.960033700001,None,2227.7267715999988,None,-0.0,3.5808982999988075,2234.643082999999,None,3.0,2.698254700000689,2231.3435026000006,None,6.0,3.315058799998951,<function functionImportanceA at 0x0000021299F99BF8>,<function functionImportanceC at 0x0000021299F99B70>,<function functionImportanceB at 0x0000021299F99598>,,,2.0,3.5808982999988075,3.0,2.731519599998137,4.0,2.4811165999999503,<function functiondiffC at 0x0000021299F99D08>,<function functiondiffA at 0x0000021294FC2D08>,<function functiondiffB at 0x00000212995CC8C8>,,,,,2213.065970300002,2237.3431504,None,2240.0931082999996,None,2242.8431143000016,None,12,001,2022_Jul_12_1417,2leo,2021.2.3,59.937844454755485,
3,36,Plan your shopping for new clothing,Stimuli/36A1.jpg,Stimuli/36A2.jpg,Stimuli/36A3.jpg,Stimuli/36B1.jpg,Stimuli/36B2.jpg,Stimuli/36B3.jpg,Stimuli/36C1.jpg,Stimuli/36C2.jpg,Stimuli/36C3.jpg,,,,,0,39,39,36,,,,,,,,2244.8430045999994,None,2245.8430408999993,None,2251.8431418,None,"[-0.378, -0.136]","[0.07, 0.393]","[0.304, -0.26]","[-0.377, 0.138]","[0.306, 0.255]","[0.066, -0.395]","[-0.2, 0.346]","[0.399, -0.003]","[-0.203, -0.347]",,6.69646276000276,12.01336256000286,3.796768960004556,"[-0.17314814814814813, 0.024074074074074074, 0.25277777777777777]","[0.27685185185185185, 0.3351851851851852, 0.18888888888888888]","[1, 1, 1]","[0, 0, 0]","[0, 0, 0]","[3.78026619999946, 6.680353100000502, 11.996994400000403]",0.015588260004733456,12.012309060002735,['A2'],['B2'],['C1'],['salmon'],['blue'],['yellow'],2265.458990700001,None,4.0,2.230129499999748,2265.458990700001,None,2274.175724500001,None,3.0,3.1820843999994395,2267.742614400002,None,7.0,3.26453169999877,2271.042359700001,None,6.0,3.1148054000004777,<function functionImportanceB at 0x0000021299F99730>,<function functionImportanceC at 0x0000021299F991E0>,<function functionImportanceA at 0x0000021299F99840>,,,3.0,3.1820843999994395,1.0,2.8645986000010453,4.0,2.3814223000008496,<function functiondiffC at 0x0000021299885EA0>,<function functiondiffB at 0x0000021299F99D90>,<function functiondiffA at 0x0000021299F99E18>,,,,,2252.9777619000015,2277.3423089999997,None,2284.825357400001,None,2282.4253737,None,12,001,2022_Jul_12_1417,2leo,2021.2.3,59.937844454755485,
3,38,Plan how you want to go for a run,Stimuli/38A1.jpg,Stimuli/38A2.jpg,Stimuli/38A3.jpg,Stimuli/38B1.jpg,Stimuli/38B2.jpg,Stimuli/38B3.jpg,Stimuli/38C1.jpg,Stimuli/38C2.jpg,Stimuli/38C3.jpg,,,,,0,40,40,38,,,,,,,,2287.2096593999995,None,2288.2084418000013,None,2294.208477600001,None,"[-0.377, 0.138]","[0.306, 0.255]","[0.066, -0.395]","[-0.2, 0.346]","[0.399, -0.003]","[-0.203, -0.347]","[-0.378, -0.136]","[0.07, 0.393]","[0.304, -0.26]",,14.744872100003704,3.928777100001753,17.512109600003896,"[-0.17777777777777778, 0.2518518518518518, 0.11018518518518519]","[0.4009259259259259, 0.2388888888888889, 0.3490740740740741]","[1, 1, 1]","[0, 0, 0]","[0, 0, 0]","[3.91269640000246, 14.728973500001302, 17.495703200002026]",0.015398400002595736,17.510840400002053,['A2'],['B1'],['C2'],['salmon'],['yellow'],['blue'],2313.4245709999996,None,4.0,2.013410899999144,2313.4245709999996,None,2318.8410547999993,None,8.0,4.048740300000645,2315.507893500002,None,10.0,3.3142071000002034,2322.9911266000017,None,9.0,3.1318894999967597,<function functionImportanceB at 0x0000021299F99AE8>,<function functionImportanceA at 0x0000021299F990D0>,<function functionImportanceC at 0x0000021299BD0BF8>,,,10.0,4.048740300000645,8.0,3.714295300000231,-0.0,3.1978707000016584,<function functiondiffA at 0x0000021299F99F28>,<function functiondiffC at 0x00000212995CCB70>,<function functiondiffB at 0x0000021299F99950>,,,,,2295.444875600002,2329.7743463000006,None,2326.0244568999988,None,2332.807626500002,None,12,001,2022_Jul_12_1417,2leo,2021.2.3,59.937844454755485,
3,6,Plan your wedding,Stimuli/6A1.jpg,Stimuli/6A2.jpg,Stimuli/6A3.jpg,Stimuli/6B1.jpg,Stimuli/6B2.jpg,Stimuli/6B3.jpg,Stimuli/6C1.jpg,Stimuli/6C2.jpg,Stimuli/6C3.jpg,,,,,0,41,41,6,,,,,,,,2335.5248686000014,None,2336.524027800002,None,2342.523943,None,"[-0.377, 0.138]","[0.066, -0.395]","[0.306, 0.255]","[-0.378, -0.136]","[0.304, -0.26]","[0.07, 0.393]","[-0.2, 0.346]","[-0.203, -0.347]","[0.399, -0.003]",,9.766909900026803,5.433463400026085,13.766984900026728,"[-0.375, 0.35, -0.24444444444444444]","[-0.06759259259259259, 0.2638888888888889, 0.3574074074074074]","[1, 1, 1]","[0, 0, 0]","[0, 0, 0]","[5.419823299998825, 9.75334010000006, 13.753077800000028]",0.012913400027173338,13.765748900026665,['A3'],['B1'],['C1'],['yellow'],['blue'],['salmon'],2361.8731952000016,None,6.0,2.1971282999984396,2361.8731952000016,None,2369.5231367000015,None,9.0,3.881831000002421,2373.9060747000003,None,6.0,4.215558899999451,2365.3396729000015,None,4.0,4.214815999999701,<function functionImportanceC at 0x0000021299F99A60>,<function functionImportanceA at 0x0000021292D34620>,<function functionImportanceB at 0x0000021299BD01E0>,,,4.0,3.881831000002421,6.0,3.749417300001369,5.0,3.647945000000618,<function functiondiffC at 0x000002129A3B3950>,<function functiondiffB at 0x0000021299F99620>,<function functiondiffA at 0x0000021299F99EA0>,,,,,2347.6549717999987,2376.8741458000004,None,2383.6562244999986,None,2380.106229699999,None,12,001,2022_Jul_12_1417,2leo,2021.2.3,59.937844454755485,
3,9,Plan a picnic with friends,Stimuli/9A1.jpg,Stimuli/9A2.jpg,Stimuli/9A3.jpg,Stimuli/9B1.jpg,Stimuli/9B2.jpg,Stimuli/9B3.jpg,Stimuli/9C1.jpg,Stimuli/9C2.jpg,Stimuli/9C3.jpg,,,,,0,42,42,9,,,,,,,,2386.6411623999993,None,2387.655849999999,None,2393.6560806999987,None,"[-0.377, 0.138]","[0.066, -0.395]","[0.306, 0.255]","[-0.378, -0.136]","[0.304, -0.26]","[0.07, 0.393]","[-0.2, 0.346]","[-0.203, -0.347]","[0.399, -0.003]",,4.362762540025869,12.680352040024445,7.879984040024283,"[-0.3453703703703704, -0.2611111111111111, 0.0824074074074074]","[0.1537037037037037, 0.32592592592592595, 0.3296296296296296]","[1, 1, 1]","[0, 0, 0]","[0, 0, 0]","[4.35793239999839, 7.87463199999911, 12.675072199999704]",0.0044241400246392,12.678992540026229,['A1'],['B3'],['C1'],['blue'],['salmon'],['yellow'],2412.2883746000007,None,8.0,1.963087899999664,2412.2883746000007,None,2420.421555000001,None,5.0,5.246311999999307,2425.460313399999,None,4.0,7.831842999999935,2415.8386073,None,6.0,4.498124999998254,<function functionImportanceC at 0x000002129A3B36A8>,<function functionImportanceA at 0x0000021292D342F0>,<function functionImportanceB at 0x000002129A3B3D08>,,,3.0,5.246311999999307,4.0,2.8646078999991005,5.0,2.914407200001733,<function functiondiffC at 0x000002129A3B3B70>,<function functiondiffA at 0x0000021299F99C80>,<function functiondiffB at 0x0000021299F99488>,,,,,2399.1495154000004,2432.3881648999995,None,2436.088147999999,None,2438.888025799999,None,12,001,2022_Jul_12_1417,2leo,2021.2.3,59.937844454755485,
3,15,Plan your own Pasta for lunch,Stimuli/15A1.jpg,Stimuli/15A2.jpg,Stimuli/15A3.jpg,Stimuli/15B1.jpg,Stimuli/15B2.jpg,Stimuli/15B3.jpg,Stimuli/15C1.jpg,Stimuli/15C2.jpg,Stimuli/15C3.jpg,,,,,0,43,43,15,,,,,,,,2440.9388461000017,None,2441.937986000001,None,2447.937943500001,None,"[-0.377, 0.138]","[0.306, 0.255]","[0.066, -0.395]","[-0.2, 0.346]","[0.399, -0.003]","[-0.203, -0.347]","[-0.378, -0.136]","[0.07, 0.393]","[0.304, -0.26]",,14.45180722000805,11.785310220006068,6.052657620006357,"[0.06018518518518518, -0.12129629629629629, -0.43333333333333335]","[0.4046296296296296, 0.28425925925925927, 0.1675925925925926]","[1, 1, 1]","[0, 0, 0]","[0, 0, 0]","[6.045596700001624, 11.778569199999765, 14.4454461000023]",0.0059580200068012346,14.45084752000912,['A1'],['B1'],['C2'],['salmon'],['blue'],['yellow'],2464.8371227999996,None,4.0,2.780007500001375,2464.8371227999996,None,2472.1039124000017,None,2.0,3.0485281000001123,2475.0705075000005,None,7.0,3.5156339000022854,2468.4373185000004,None,6.0,4.281422399999428,<function functionImportanceC at 0x000002129A3B3400>,<function functionImportanceA at 0x000002129A3B37B8>,<function functionImportanceB at 0x000002129A3B3158>,,,4.0,3.0485281000001123,9.0,2.580794599998626,9.0,3.5640648000007786,<function functiondiffA at 0x000002129A3B3AE8>,<function functiondiffB at 0x000002129A3B3EA0>,<function functiondiffC at 0x0000021299F992F0>,,,,,2449.9214342000014,2484.870130899999,None,2478.553402900001,None,2481.1535987999996,None,12,001,2022_Jul_12_1417,2leo,2021.2.3,59.937844454755485,
3,30,Plan your sport work out for tomorrow,Stimuli/30A1.jpg,Stimuli/30A2.jpg,Stimuli/30A3.jpg,Stimuli/30B1.jpg,Stimuli/30B2.jpg,Stimuli/30B3.jpg,Stimuli/30C1.jpg,Stimuli/30C2.jpg,Stimuli/30C3.jpg,,,,,0,44,44,30,,,,,,,,2486.7212919000012,None,2487.7365489000003,None,2493.7367072000015,None,"[-0.203, -0.347]","[-0.2, 0.346]","[0.399, -0.003]","[0.066, -0.395]","[-0.377, 0.138]","[0.306, 0.255]","[0.304, -0.26]","[-0.378, -0.136]","[0.07, 0.393]",,13.974281680002605,3.341217080000206,7.425027479999699,"[0.05092592592592592, -0.32685185185185184, -0.1259259259259259]","[-0.30648148148148147, -0.10462962962962963, -0.30833333333333335]","[1, 1, 1]","[0, 0, 0]","[0, 0, 0]","[3.3273671999995713, 7.410869400002412, 13.960745500000485]",0.01312008000240894,13.973567180000828,['A1'],['B1'],['C2'],['salmon'],['yellow'],['blue'],2509.3693648000008,None,7.0,2.0965973999991547,2509.3693648000008,None,2514.6027102000007,None,9.0,2.7649878000011086,2517.4359976000014,None,5.0,2.998384700000315,2511.5527819000017,None,3.0,3.0479133000008005,<function functionImportanceC at 0x000002129A3B31E0>,<function functionImportanceA at 0x000002129A3B3598>,<function functionImportanceB at 0x000002129A3B3F28>,,,7.0,2.7649878000011086,6.0,2.864439400000265,1.0,2.497483800001646,<function functiondiffC at 0x0000021299F997B8>,<function functiondiffA at 0x0000021294FC2268>,<function functiondiffB at 0x0000021299F99510>,,,,,2494.9236012,2520.3690637,None,2523.102353099999,None,2526.0024163000016,None,12,001,2022_Jul_12_1417,2leo,2021.2.3,59.937844454755485,
