Condition,N_Scenario,written_scenario,ImageA1,ImageA2,ImageA3,ImageB1,ImageB2,ImageB3,ImageC1,ImageC2,ImageC3,trials_2.thisRepN,trials_2.thisTrialN,trials_2.thisN,trials_2.thisIndex,trial.thisRepN,trial.thisTrialN,trial.thisN,trial.thisIndex,button_2.started,button_2.stopped,button_2.numClicks,button_2.timesOn,button_2.timesOff,text.started,text.stopped,fixationcross1_started,fixationcross1_stopped,Scenario_started,Scenario_stopped,fixationcross2_started,fixationcross2_stopped,A1pos,A2pos,A3pos,B1pos,B2pos,B3pos,C1pos,C2pos,C3pos,﻿Imagesdecision_started,decisiontimeA,decisiontimeB,decisiontimeC,mouse_x,mouse_y,mouse_leftButton,mouse_midButton,mouse_rightButton,mouse_time,mouse_started,mouse_stopped,clicked_optionA,clicked_optionB,clicked_optionC,colour_category_A,colour_category_B,colour_category_C,question_confidence_started,question_confidence_stopped,slider_confidence_response,slider_confidence_rt,slider_confidence_started,slider_confidence_stopped,question_valueB_started,question_valueB_stopped,slider_valueB_response,slider_valueB_rt,question_valueC_started,question_valueC_stopped,slider_valueC_response,slider_valueC_rt,question_valueA_started,question_valueA_stopped,slider_valueA_response,slider_valueA_rt,Importance_First,Importance_Second,Importance_Third,question_diff_started,question_diff_stopped,slider_diffB_response,slider_diffB_rt,slider_diffC_response,slider_diffC_rt,slider_diffA_response,slider_diffA_rt,diff_First,diff_Second,diff_Third,button_3_started,button_3_stopped,text_2_started,text_2_stopped,Imagesdecision_started,question_diffB_started,question_diffB_stopped,question_diffC_started,question_diffC_stopped,question_diffA_started,question_diffA_stopped,participant,session,date,expName,psychopyVersion,frameRate,
3,2,Plan a party to celebrate your birthday,Stimuli/2A1t.jpg,Stimuli/2A2t.jpg,Stimuli/2A3t.jpg,Stimuli/2B1t.jpg,Stimuli/2B2t.jpg,Stimuli/2B3t.jpg,Stimuli/2C1t.jpg,Stimuli/2C2t.jpg,Stimuli/2C3t.jpg,0,0,0,0,,,,,33.250039599995944,None,1,[1.33727540000109],[1.3372792000009213],33.250039599995944,None,104.32291149999946,None,105.32538609999756,None,111.3254772000073,None,"[0.306, 0.255]","[-0.377, 0.138]","[0.066, -0.395]","[0.07, 0.393]","[-0.378, -0.136]","[0.304, -0.26]","[0.399, -0.003]","[-0.2, 0.346]","[-0.203, -0.347]",115.35332130000461,12.214503999988665,15.16498019998835,7.082163499988383,"[-0.15185185185185185, 0.2601851851851852, 0.10462962962962963]","[0.2953703703703704, 0.21851851851851853, 0.37777777777777777]","[1, 1, 1]","[0, 0, 0]","[0, 0, 0]","[7.068100399992545, 12.201126899992232, 15.1513372999907]",0.012953499986906536,15.163981399993645,['A1'],['B1'],['C2'],['yellow'],['blue'],['salmon'],130.97471890000452,None,9.0,4.413421499994001,130.97471890000452,None,137.02473610000743,None,6.0,14.697400699995342,150.1908747999987,None,10.0,2.664749199990183,154.1409377999953,None,4.0,4.348358699993696,<function functionImportanceBt at 0x000002A33A201E18>,<function functionImportanceCt at 0x000002A347371A60>,<function functionImportanceAt at 0x000002A33D7D7268>,173.4570570000069,None,5.0,8.94736269999703,8.0,6.831327099993359,0.0,4.348358699993696,<function functiondiffBt at 0x000002A347623598>,<function functiondiffCt at 0x000002A347623A60>,<function functiondiffAt at 0x000002A347623F28>,,,,,,,,,,,,29,001,2022_Jul_21_1016,2leo,2021.2.3,59.986563008828796,
3,3,Plan one week of vacation,Stimuli/3A1t.jpg,Stimuli/3A2t.jpg,Stimuli/3A3t.jpg,Stimuli/3B1t.jpg,Stimuli/3B2t.jpg,Stimuli/3B3t.jpg,Stimuli/3C1t.jpg,Stimuli/3C2t.jpg,Stimuli/3C3t.jpg,0,1,1,1,,,,,,,,,,,,179.30691220000153,None,180.30693200000678,None,186.30684279999696,None,"[-0.378, -0.136]","[0.07, 0.393]","[0.304, -0.26]","[-0.377, 0.138]","[0.306, 0.255]","[0.066, -0.395]","[-0.2, 0.346]","[0.399, -0.003]","[-0.203, -0.347]",192.40943179999886,13.823714339989237,17.774147339980118,9.691212039979291,"[-0.16296296296296298, 0.07222222222222222, -0.3472222222222222]","[0.28703703703703703, 0.37962962962962965, 0.08148148148148149]","[1, 1, 1]","[0, 0, 0]","[0, 0, 0]","[9.679964800001471, 13.81290839999565, 17.763175599990063]",0.010292939987266436,17.77315563998127,['A2'],['B1'],['C1'],['blue'],['salmon'],['yellow'],210.63926379999612,None,10.0,9.230471599992597,210.63926379999612,None,221.65592869999819,None,9.0,11.397658200003207,238.1887590999977,None,8.0,9.765127300008317,233.25543330000073,None,10.0,5.365059300005669,<function functionImportanceBt at 0x000002A347371E18>,<function functionImportanceAt at 0x000002A3370931E0>,<function functionImportanceCt at 0x000002A347371BF8>,257.20482820000325,None,1.0,5.297980999996071,7.0,6.697926199994981,0.0,5.365059300005669,<function functiondiffCt at 0x000002A3476231E0>,<function functiondiffAt at 0x000002A347623400>,<function functiondiffBt at 0x000002A347623378>,,,,,,,,,,,,29,001,2022_Jul_21_1016,2leo,2021.2.3,59.986563008828796,
3,42,Plan how to draw a painting ,Stimuli/42A1.jpg,Stimuli/42A2.jpg,Stimuli/42A3.jpg,Stimuli/42B1.jpg,Stimuli/42B2.jpg,Stimuli/42B3.jpg,Stimuli/42C1.jpg,Stimuli/42C2.jpg,Stimuli/42C3.jpg,,,,,0,0,0,42,,,,,,,,321.1017511999962,None,322.0866168000066,None,328.08637600000657,None,"[-0.203, -0.347]","[-0.2, 0.346]","[0.399, -0.003]","[0.304, -0.26]","[-0.378, -0.136]","[0.07, 0.393]","[0.066, -0.395]","[-0.377, 0.138]","[0.306, 0.255]",,7.640549979987554,15.490980379996472,23.97472657999606,"[-0.14444444444444443, 0.08148148148148149, 0.2777777777777778]","[-0.27870370370370373, 0.41203703703703703, 0.24074074074074073]","[1, 1, 1]","[0, 0, 0]","[0, 0, 0]","[7.634833999996772, 15.484802999999374, 23.968347799993353]",0.005290479995892383,23.973241479994613,['A1'],['B3'],['C3'],['blue'],['yellow'],['salmon'],353.9021538000088,None,6.0,4.461577599999146,353.9021538000088,None,363.71878399999696,None,7.0,3.515036000011605,358.4522089999955,None,10.0,5.247621299989987,367.4353683000081,None,1.0,9.61453390000679,<function functionImportanceC at 0x000002A3477BAC80>,<function functionImportanceB at 0x000002A347623C80>,<function functionImportanceA at 0x000002A3473719D8>,,,3.0,6.163810300000478,-0.0,9.61453390000679,10.0,2.6644096999953035,<function functiondiffB at 0x000002A347623D90>,<function functiondiffC at 0x000002A347623510>,<function functiondiffA at 0x000002A347623730>,261.621455600005,None,261.621455600005,None,329.43414140000823,376.81848630000604,None,383.00159410000197,None,386.36830180000106,None,29,001,2022_Jul_21_1016,2leo,2021.2.3,59.986563008828796,
3,27,Plan what festival to visit with your friends,Stimuli/27A1.jpg,Stimuli/27A2.jpg,Stimuli/27A3.jpg,Stimuli/27B1.jpg,Stimuli/27B2.jpg,Stimuli/27B3.jpg,Stimuli/27C1.jpg,Stimuli/27C2.jpg,Stimuli/27C3.jpg,,,,,0,1,1,27,,,,,,,,388.51794849999715,None,389.5179257999989,None,395.5179416000028,None,"[-0.2, 0.346]","[-0.203, -0.347]","[0.399, -0.003]","[-0.378, -0.136]","[0.304, -0.26]","[0.07, 0.393]","[-0.377, 0.138]","[0.066, -0.395]","[0.306, 0.255]",,9.913188919992535,17.696671319994493,22.996755820000544,"[-0.14814814814814814, 0.07037037037037037, -0.3648148148148148]","[-0.2962962962962963, 0.3212962962962963, 0.1675925925925926]","[1, 1, 1]","[0, 0, 0]","[0, 0, 0]","[9.905357800002093, 17.68847610001103, 22.988530700007686]",0.007303519989363849,22.995557419999386,['A2'],['B3'],['C1'],['salmon'],['yellow'],['blue'],420.1337138999952,None,9.0,5.813526900004945,420.1337138999952,None,426.0171597000008,None,7.0,12.530831700001727,445.31654759999947,None,1.0,6.798412200005259,438.56684090000635,None,9.0,6.731667299987748,<function functionImportanceB at 0x000002A347330EA0>,<function functionImportanceA at 0x000002A346C8A9D8>,<function functionImportanceC at 0x000002A3477BA8C8>,,,7.0,3.297966500002076,0.0,6.731667299987748,3.0,2.8980562999931863,<function functiondiffB at 0x000002A3477BA620>,<function functiondiffA at 0x000002A3477BA268>,<function functiondiffC at 0x000002A3477BAAE8>,,,,,396.6601260000025,452.09945180000796,None,458.33294860000024,None,455.4164783000015,None,29,001,2022_Jul_21_1016,2leo,2021.2.3,59.986563008828796,
3,0,Plan a barbecue,Stimuli/0A1.jpg,Stimuli/0A2.jpg,Stimuli/0A3.jpg,Stimuli/0B1.jpg,Stimuli/0B2.jpg,Stimuli/0B3.jpg,Stimuli/0C1.jpg,Stimuli/0C2.jpg,Stimuli/0C3.jpg,,,,,0,2,2,0,,,,,,,,464.28262320000795,None,465.2827502,None,471.28273390000686,None,"[-0.377, 0.138]","[0.306, 0.255]","[0.066, -0.395]","[-0.378, -0.136]","[0.07, 0.393]","[0.304, -0.26]","[-0.2, 0.346]","[0.399, -0.003]","[-0.203, -0.347]",,23.00380822000443,15.22072671999922,11.237559319997672,"[0.33796296296296297, -0.3296296296296296, 0.26944444444444443]","[0.003703703703703704, -0.08518518518518518, 0.18981481481481483]","[1, 1, 1]","[0, 0, 0]","[0, 0, 0]","[11.227816099999472, 15.21130959999573, 22.99458919999597]",0.00872061999689322,23.003031319996808,['A2'],['B1'],['C2'],['blue'],['salmon'],['yellow'],497.24844419999863,None,8.0,6.96363559999736,497.24844419999863,None,504.2818627000088,None,2.0,4.464323299995158,515.7315390000003,None,2.0,20.58095879999746,510.09845170000335,None,8.0,6.948322999989614,<function functionImportanceB at 0x000002A3477BA1E0>,<function functionImportanceA at 0x000002A347623D08>,<function functionImportanceC at 0x000002A3477BA9D8>,,,7.0,8.463988700008485,2.0,6.948322999989614,8.0,5.3147119999921415,<function functiondiffB at 0x000002A3477BA730>,<function functiondiffC at 0x000002A3477BAEA0>,<function functiondiffA at 0x000002A3477BA158>,,,,,473.78531920000387,536.2976980000094,None,544.7808378000045,None,548.347162799997,None,29,001,2022_Jul_21_1016,2leo,2021.2.3,59.986563008828796,
3,28,Plan a one-week camping trip in Spain,Stimuli/28A1.jpg,Stimuli/28A2.jpg,Stimuli/28A3.jpg,Stimuli/28B1.jpg,Stimuli/28B2.jpg,Stimuli/28B3.jpg,Stimuli/28C1.jpg,Stimuli/28C2.jpg,Stimuli/28C3.jpg,,,,,0,3,3,28,,,,,,,,552.7636321000027,None,553.7637314000021,None,559.7636739000009,None,"[0.304, -0.26]","[-0.378, -0.136]","[0.07, 0.393]","[-0.203, -0.347]","[-0.2, 0.346]","[0.399, -0.003]","[0.066, -0.395]","[-0.377, 0.138]","[0.306, 0.255]",,16.12930349999806,6.263565999994171,25.17982900000061,"[0.33796296296296297, 0.25925925925925924, 0.2388888888888889]","[0.005555555555555556, -0.20185185185185187, 0.20092592592592592]","[1, 1, 1]","[0, 0, 0]","[0, 0, 0]","[6.247176200005924, 16.11335300000792, 25.163074600000982]",0.015531299999565817,25.1785785999964,['A1'],['B3'],['C3'],['blue'],['yellow'],['salmon'],586.5628218000056,None,6.0,6.579683899995871,586.5628218000056,None,593.2128173000092,None,7.0,10.347514599998249,607.5290701000049,None,2.0,3.664921100003994,603.6126078000088,None,2.0,3.9483216000080574,<function functionImportanceB at 0x000002A347623EA0>,<function functionImportanceA at 0x000002A347623488>,<function functionImportanceC at 0x000002A3477BAD90>,,,2.0,2.8148090000031516,8.0,3.9483216000080574,9.0,4.398179299998446,<function functiondiffC at 0x000002A347623BF8>,<function functiondiffA at 0x000002A3477BABF8>,<function functiondiffB at 0x000002A3476236A8>,,,,,560.9136451000086,618.7453891000041,None,611.1957456999953,None,614.3287462000008,None,29,001,2022_Jul_21_1016,2leo,2021.2.3,59.986563008828796,
3,1,Plan how to study for an exam,Stimuli/1A1.jpg,Stimuli/1A2.jpg,Stimuli/1A3.jpg,Stimuli/1B1.jpg,Stimuli/1B2.jpg,Stimuli/1B3.jpg,Stimuli/1C1.jpg,Stimuli/1C2.jpg,Stimuli/1C3.jpg,,,,,0,4,4,1,,,,,,,,621.0786116999952,None,622.078579699999,None,628.0786536000087,None,"[0.306, 0.255]","[-0.377, 0.138]","[0.066, -0.395]","[0.399, -0.003]","[-0.2, 0.346]","[-0.203, -0.347]","[0.07, 0.393]","[-0.378, -0.136]","[0.304, -0.26]",,29.02659766000579,6.794032560006599,18.877030860006926,"[0.4148148148148148, -0.31851851851851853, 0.27870370370370373]","[0.009259259259259259, -0.16203703703703703, 0.23055555555555557]","[1, 1, 1]","[0, 0, 0]","[0, 0, 0]","[6.787735099991551, 18.870396799989976, 29.02059129999543]",0.005599860000074841,29.025838260000455,['A1'],['B1'],['C2'],['blue'],['salmon'],['yellow'],658.6942711000011,None,10.0,2.579875900002662,658.6942711000011,None,673.7107477999962,None,3.0,6.383022099995287,669.9440706000023,None,6.0,3.715034699998796,661.3444181000086,None,10.0,8.614208400002099,<function functionImportanceA at 0x000002A3477BA0D0>,<function functionImportanceC at 0x000002A347623620>,<function functionImportanceB at 0x000002A3477BA7B8>,,,7.0,3.5815494999988005,0.0,8.614208400002099,3.0,2.9479785000003176,<function functiondiffC at 0x000002A3002DF730>,<function functiondiffA at 0x000002A3477BAB70>,<function functiondiffB at 0x000002A3477BA950>,,,,,629.1887262000091,690.7270002000005,None,680.0604748000042,None,687.760368800009,None,29,001,2022_Jul_21_1016,2leo,2021.2.3,59.986563008828796,
3,10,Plan a restaurant visit with your family on the weekend ,Stimuli/10A1.jpg,Stimuli/10A2.jpg,Stimuli/10A3.jpg,Stimuli/10B1.jpg,Stimuli/10B2.jpg,Stimuli/10B3.jpg,Stimuli/10C1.jpg,Stimuli/10C2.jpg,Stimuli/10C3.jpg,,,,,0,5,5,10,,,,,,,,693.8266189999995,None,694.8267230000056,None,700.8267573000048,None,"[0.306, 0.255]","[-0.377, 0.138]","[0.066, -0.395]","[0.399, -0.003]","[-0.2, 0.346]","[-0.203, -0.347]","[0.07, 0.393]","[-0.378, -0.136]","[0.304, -0.26]",,14.468062600004487,25.184846600008314,7.102096700007678,"[0.34074074074074073, 0.07962962962962963, 0.3962962962962963]","[-0.2564814814814815, -0.37037037037037035, 0.016666666666666666]","[1, 1, 1]","[0, 0, 0]","[0, 0, 0]","[7.0863842999970075, 14.452814999996917, 25.169554099993547]",0.01460340000630822,25.183853500013356,['A3'],['B1'],['C3'],['blue'],['salmon'],['yellow'],730.4922728999954,None,7.0,3.079931900007068,730.4922728999954,None,745.426159900002,None,2.0,6.764773699993384,738.7089014000085,None,7.0,3.93155010000919,733.7423965000053,None,10.0,5.064478400003281,<function functionImportanceA at 0x000002A3477BA378>,<function functionImportanceC at 0x000002A3002DF2F0>,<function functionImportanceB at 0x000002A3002DF598>,,,2.0,7.91460509999888,5.0,5.064478400003281,1.0,4.830199000003631,<function functiondiffC at 0x000002A3002DF620>,<function functiondiffA at 0x000002A3476230D0>,<function functiondiffB at 0x000002A3477BAF28>,,,,,704.8541142000031,760.5749477000063,None,749.4253363000025,None,754.9251615999965,None,29,001,2022_Jul_21_1016,2leo,2021.2.3,59.986563008828796,
3,18,Plan your Saturday night ,Stimuli/18A1.jpg,Stimuli/18A2.jpg,Stimuli/18A3.jpg,Stimuli/18B1.jpg,Stimuli/18B2.jpg,Stimuli/18B3.jpg,Stimuli/18C1.jpg,Stimuli/18C2.jpg,Stimuli/18C3.jpg,,,,,0,6,6,18,,,,,,,,767.1911688999971,None,768.191625300009,None,774.1917052000063,None,"[-0.378, -0.136]","[0.304, -0.26]","[0.07, 0.393]","[-0.2, 0.346]","[-0.203, -0.347]","[0.399, -0.003]","[-0.377, 0.138]","[0.066, -0.395]","[0.306, 0.255]",,15.725258020000183,8.525719720011693,25.14201462001074,"[-0.1712962962962963, 0.08981481481481482, -0.30648148148148147]","[0.2824074074074074, 0.3425925925925926, 0.14814814814814814]","[1, 1, 1]","[0, 0, 0]","[0, 0, 0]","[8.511802599998191, 15.711389499992947, 25.127719800002524]",0.013223720001406036,25.14088062000519,['A3'],['B1'],['C1'],['salmon'],['yellow'],['blue'],800.940643199996,None,4.0,6.580239100003382,800.940643199996,None,818.1736478000093,None,10.0,3.8651565999898594,807.5906222000049,None,0.0,3.9806777000048896,811.5905353999988,None,9.0,6.53162130000419,<function functionImportanceC at 0x000002A3002DF9D8>,<function functionImportanceA at 0x000002A33EDA3E18>,<function functionImportanceB at 0x000002A3002DFAE8>,,,10.0,5.364414899988333,0.0,6.53162130000419,6.0,8.831139899994014,<function functiondiffB at 0x000002A3477BA840>,<function functiondiffC at 0x000002A347623E18>,<function functiondiffA at 0x000002A3477BAD08>,,,,,775.3288960000064,821.9735251000093,None,827.3733520000096,None,830.2066474000021,None,29,001,2022_Jul_21_1016,2leo,2021.2.3,59.986563008828796,
3,37,Plan your cleaning routine ,Stimuli/37A1.jpg,Stimuli/37A2.jpg,Stimuli/37A3.jpg,Stimuli/37B1.jpg,Stimuli/37B2.jpg,Stimuli/37B3.jpg,Stimuli/37C1.jpg,Stimuli/37C2.jpg,Stimuli/37C3.jpg,,,,,0,7,7,37,,,,,,,,838.556161200002,None,839.5561720999976,None,845.5562930000015,None,"[0.304, -0.26]","[-0.378, -0.136]","[0.07, 0.393]","[0.066, -0.395]","[-0.377, 0.138]","[0.306, 0.255]","[-0.203, -0.347]","[-0.2, 0.346]","[0.399, -0.003]",,11.186331139993854,18.286242240006686,7.620569539998542,"[-0.1527777777777778, -0.37962962962962965, 0.07685185185185185]","[0.3175925925925926, -0.1574074074074074, -0.34444444444444444]","[1, 1, 1]","[0, 0, 0]","[0, 0, 0]","[7.617489500000374, 11.183765199995833, 18.283501400001114]",0.0020719400054076687,18.285385340001085,['A2'],['B1'],['C2'],['salmon'],['blue'],['yellow'],865.4555110000074,None,9.0,3.379807300007087,865.4555110000074,None,877.5221446000069,None,8.0,6.515080500001204,884.0552462000051,None,1.0,2.647223199994187,868.9054835999996,None,1.0,8.614741499986849,<function functionImportanceA at 0x000002A3002DFC80>,<function functionImportanceB at 0x000002A3002DFA60>,<function functionImportanceC at 0x000002A3002DFD08>,,,-0.0,2.6811535000015283,3.0,8.614741499986849,0.0,5.481414299996686,<function functiondiffA at 0x000002A3002DF400>,<function functiondiffC at 0x000002A3002DFF28>,<function functiondiffB at 0x000002A3002DF1E0>,,,,,846.6868582000025,895.3882924000063,None,892.2050099000044,None,886.7052588000079,None,29,001,2022_Jul_21_1016,2leo,2021.2.3,59.986563008828796,
3,21,Plan your sandwich for lunch,Stimuli/21A1.jpg,Stimuli/21A2.jpg,Stimuli/21A3.jpg,Stimuli/21B1.jpg,Stimuli/21B2.jpg,Stimuli/21B3.jpg,Stimuli/21C1.jpg,Stimuli/21C2.jpg,Stimuli/21C3.jpg,,,,,0,8,8,21,,,,,,,,897.5877518000052,None,898.5880481000058,None,904.5880026000086,None,"[0.306, 0.255]","[-0.377, 0.138]","[0.066, -0.395]","[0.399, -0.003]","[-0.2, 0.346]","[-0.203, -0.347]","[0.07, 0.393]","[-0.378, -0.136]","[0.304, -0.26]",,18.94483130000299,7.378870300002745,12.045619900003658,"[-0.18425925925925926, 0.05092592592592592, 0.2657407407407407]","[0.35648148148148145, 0.3537037037037037, 0.22314814814814815]","[1, 1, 1]","[0, 0, 0]","[0, 0, 0]","[7.363095099994098, 12.02973789999669, 18.929435199999716]",0.014973700002883561,18.944262000004528,['A1'],['B2'],['C1'],['salmon'],['blue'],['yellow'],925.1537686000083,None,10.0,2.8139195999974618,925.1537686000083,None,939.8038429000007,None,9.0,4.416971700004069,936.120262299999,None,3.0,3.681832000002032,928.0374125000089,None,7.0,8.06458889998612,<function functionImportanceA at 0x000002A3002DF950>,<function functionImportanceC at 0x000002A3002DFD90>,<function functionImportanceB at 0x000002A3002DF7B8>,,,2.0,2.5311972000054084,9.0,8.06458889998612,4.0,3.8812886999949114,<function functiondiffC at 0x000002A3002DFBF8>,<function functiondiffB at 0x000002A3002DF158>,<function functiondiffA at 0x000002A3002DF0D0>,,,,,905.7381606999988,948.6535864000034,None,944.2203651000018,None,951.1868856000074,None,29,001,2022_Jul_21_1016,2leo,2021.2.3,59.986563008828796,
3,23,Plan a city trip,Stimuli/23A1.jpg,Stimuli/23A2.jpg,Stimuli/23A3.jpg,Stimuli/23B1.jpg,Stimuli/23B2.jpg,Stimuli/23B3.jpg,Stimuli/23C1.jpg,Stimuli/23C2.jpg,Stimuli/23C3.jpg,,,,,0,9,9,23,,,,,,,,954.6031839000061,None,955.6032673000009,None,961.6032897999976,None,"[0.066, -0.395]","[0.306, 0.255]","[-0.377, 0.138]","[-0.203, -0.347]","[0.399, -0.003]","[-0.2, 0.346]","[0.304, -0.26]","[0.07, 0.393]","[-0.378, -0.136]",,6.267573400007677,13.267990000007558,19.418173400015803,"[0.03981481481481482, -0.19074074074074074, 0.30277777777777776]","[-0.3768518518518518, 0.33240740740740743, -0.20277777777777778]","[1, 1, 1]","[0, 0, 0]","[0, 0, 0]","[6.265973399989889, 13.265888599999016, 19.41603719998966]",0.0011928000021725893,19.4168997000088,['A1'],['B3'],['C1'],['yellow'],['salmon'],['blue'],982.6692231000052,None,9.0,3.5466697000083514,982.6692231000052,None,1001.3188145000022,None,10.0,4.0981985999969766,986.3193472999992,None,8.0,10.214401000004727,996.5023398000048,None,4.0,4.781636500003515,<function functionImportanceC at 0x000002A3002DFB70>,<function functionImportanceA at 0x000002A3477BA048>,<function functionImportanceB at 0x000002A3002DFEA0>,,,8.0,4.548345999995945,0.0,4.781636500003515,3.0,5.414551800000481,<function functiondiffA at 0x000002A3002DF268>,<function functiondiffB at 0x000002A3477BAE18>,<function functiondiffC at 0x000002A3477BAA60>,,,,,962.7675243999984,1010.8352003000036,None,1015.4018309000094,None,1005.4020767000038,None,29,001,2022_Jul_21_1016,2leo,2021.2.3,59.986563008828796,
3,13,Plan a romantic date this weekend,Stimuli/13A1.jpg,Stimuli/13A2.jpg,Stimuli/13A3.jpg,Stimuli/13B1.jpg,Stimuli/13B2.jpg,Stimuli/13B3.jpg,Stimuli/13C1.jpg,Stimuli/13C2.jpg,Stimuli/13C3.jpg,,,,,0,10,10,13,,,,,,,,1017.5348636999988,None,1018.5349243000092,None,1024.5348976000096,None,"[-0.377, 0.138]","[0.066, -0.395]","[0.306, 0.255]","[-0.2, 0.346]","[-0.203, -0.347]","[0.399, -0.003]","[-0.378, -0.136]","[0.304, -0.26]","[0.07, 0.393]",,14.417789539991645,25.251294939997024,9.834840639989125,"[0.2814814814814815, 0.23796296296296296, -0.1537037037037037]","[-0.24351851851851852, 0.21203703703703702, -0.2740740740740741]","[1, 1, 1]","[0, 0, 0]","[0, 0, 0]","[9.832359899999574, 14.415738000010606, 25.24906380000175]",0.0014631399972131476,25.25023833999876,['A3'],['B2'],['C2'],['blue'],['salmon'],['yellow'],1051.4841347000038,None,10.0,7.413601199994446,1051.4841347000038,None,1059.0172961000062,None,3.0,4.081122300005518,1063.067067099997,None,10.0,2.4480482999933884,1065.5339303000073,None,8.0,3.34894089998852,<function functionImportanceB at 0x000002A3008832F0>,<function functionImportanceC at 0x000002A300883378>,<function functionImportanceA at 0x000002A3002DF840>,,,8.0,4.364049499999965,7.0,3.34894089998852,2.0,3.6649123999959556,<function functiondiffB at 0x000002A3002DF048>,<function functiondiffA at 0x000002A3477BA598>,<function functiondiffC at 0x000002A300883620>,,,,,1025.7509282999963,1068.8837013000011,None,1076.933689700003,None,1073.250369500005,None,29,001,2022_Jul_21_1016,2leo,2021.2.3,59.986563008828796,
3,34,Plan what car you want to buy,Stimuli/34A1.jpg,Stimuli/34A2.jpg,Stimuli/34A3.jpg,Stimuli/34B1.jpg,Stimuli/34B2.jpg,Stimuli/34B3.jpg,Stimuli/34C1.jpg,Stimuli/34C2.jpg,Stimuli/34C3.jpg,,,,,0,11,11,34,,,,,,,,1081.7996259000065,None,1082.7999608999962,None,1088.799937600008,None,"[0.066, -0.395]","[-0.377, 0.138]","[0.306, 0.255]","[-0.203, -0.347]","[-0.2, 0.346]","[0.399, -0.003]","[0.304, -0.26]","[-0.378, -0.136]","[0.07, 0.393]",,13.372217159994761,3.4559905599890044,8.606471359991701,"[-0.16203703703703703, -0.3, 0.06388888888888888]","[-0.35, -0.1287037037037037, -0.3277777777777778]","[1, 1, 1]","[0, 0, 0]","[0, 0, 0]","[3.451063800006523, 8.601218900003005, 13.367572600007406]",0.004237459987052716,13.371615559997736,['A1'],['B1'],['C2'],['blue'],['yellow'],['salmon'],1105.7825996000029,None,10.0,2.080211500011501,1105.7825996000029,None,1119.3881566000055,None,10.0,3.6481040000071516,1107.915988599998,None,8.0,6.248002899999847,1115.2325746999995,None,10.0,4.215087700009462,<function functionImportanceC at 0x000002A300883158>,<function functionImportanceA at 0x000002A300883EA0>,<function functionImportanceB at 0x000002A300883840>,,,0.0,2.9474886000098195,2.0,4.215087700009462,1.0,4.3812235000077635,<function functiondiffB at 0x000002A300883B70>,<function functiondiffA at 0x000002A3002DF6A8>,<function functiondiffC at 0x000002A300883BF8>,,,,,1091.9461349000048,1122.3188023999974,None,1129.4322226000077,None,1125.3823770000017,None,29,001,2022_Jul_21_1016,2leo,2021.2.3,59.986563008828796,
3,31,Plan your order at a restaurant    ,Stimuli/31A1.jpg,Stimuli/31A2.jpg,Stimuli/31A3.jpg,Stimuli/31B1.jpg,Stimuli/31B2.jpg,Stimuli/31B3.jpg,Stimuli/31C1.jpg,Stimuli/31C2.jpg,Stimuli/31C3.jpg,,,,,0,12,12,31,,,,,,,,1135.8817551999964,None,1136.8818646,None,1142.8819132000062,None,"[0.07, 0.393]","[0.304, -0.26]","[-0.378, -0.136]","[0.399, -0.003]","[-0.203, -0.347]","[-0.2, 0.346]","[0.306, 0.255]","[0.066, -0.395]","[-0.377, 0.138]",,19.7270223400119,7.611097640008666,13.14457974000834,"[-0.14722222222222223, 0.2537037037037037, 0.08796296296296297]","[-0.31851851851851853, 0.1935185185185185, 0.3814814814814815]","[1, 1, 1]","[0, 0, 0]","[0, 0, 0]","[7.60561320000852, 13.138958399998955, 19.721932400003425]",0.0046631400036858395,19.726575040011085,['A1'],['B2'],['C1'],['yellow'],['salmon'],['blue'],1165.7310132999992,None,7.0,2.1644559999986086,1165.7310132999992,None,1173.2310375000088,None,10.0,2.8650296999985585,1176.1142655000003,None,7.0,2.481651999987662,1169.4311539000046,None,8.0,5.214107199994032,<function functionImportanceA at 0x000002A3008831E0>,<function functionImportanceB at 0x000002A300883AE8>,<function functionImportanceC at 0x000002A300883598>,,,0.0,4.915010800003074,6.0,5.214107199994032,7.0,3.6311671000003116,<function functiondiffA at 0x000002A3002DF8C8>,<function functiondiffB at 0x000002A3008837B8>,<function functiondiffC at 0x000002A300883400>,,,,,1145.5409073000046,1182.1974992000032,None,1187.130668400001,None,1178.930752900007,None,29,001,2022_Jul_21_1016,2leo,2021.2.3,59.986563008828796,
3,44,Plan a party at your place,Stimuli/44A1.jpg,Stimuli/44A2.jpg,Stimuli/44A3.jpg,Stimuli/44B1.jpg,Stimuli/44B2.jpg,Stimuli/44B3.jpg,Stimuli/44C1.jpg,Stimuli/44C2.jpg,Stimuli/44C3.jpg,,,,,0,13,13,44,,,,,,,,1191.0134410000028,None,1192.0137276000023,None,1198.0137442999985,None,"[-0.203, -0.347]","[-0.2, 0.346]","[0.399, -0.003]","[0.066, -0.395]","[-0.377, 0.138]","[0.306, 0.255]","[0.304, -0.26]","[-0.378, -0.136]","[0.07, 0.393]",,21.221377199995914,11.13882829999784,16.92196249999688,"[0.29444444444444445, -0.35, -0.14814814814814814]","[0.2212962962962963, -0.11666666666666667, 0.2962962962962963]","[1, 1, 1]","[0, 0, 0]","[0, 0, 0]","[11.134664199998952, 16.917656100005843, 21.217529700006708]",0.003284399994299747,21.22079870000016,['A2'],['B3'],['C2'],['salmon'],['blue'],['yellow'],1220.8795478999964,None,9.0,2.6810350000014296,1220.8795478999964,None,1230.9128991000034,None,10.0,3.5486200000013923,1234.4795309000037,None,10.0,2.9149380000017118,1223.6462926000095,None,7.0,7.264244000005419,<function functionImportanceA at 0x000002A300883D90>,<function functionImportanceB at 0x000002A300883C80>,<function functionImportanceC at 0x000002A300883730>,,,9.0,3.514887400000589,1.0,7.264244000005419,4.0,4.664577499992447,<function functiondiffC at 0x000002A300883F28>,<function functiondiffA at 0x000002A3002DF488>,<function functiondiffB at 0x000002A3002DF378>,,,,,1199.1767734000023,1246.6289648999955,None,1237.3795427000005,None,1241.9459069000004,None,29,001,2022_Jul_21_1016,2leo,2021.2.3,59.986563008828796,
3,9,Plan a picnic with friends,Stimuli/9A1.jpg,Stimuli/9A2.jpg,Stimuli/9A3.jpg,Stimuli/9B1.jpg,Stimuli/9B2.jpg,Stimuli/9B3.jpg,Stimuli/9C1.jpg,Stimuli/9C2.jpg,Stimuli/9C3.jpg,,,,,0,14,14,9,,,,,,,,1249.662217300007,None,1250.6622932000028,None,1256.6621966999955,None,"[-0.203, -0.347]","[0.399, -0.003]","[-0.2, 0.346]","[0.066, -0.395]","[0.306, 0.255]","[-0.377, 0.138]","[0.304, -0.26]","[0.07, 0.393]","[-0.378, -0.136]",,21.13960746000521,6.824659360005171,13.907206360003329,"[0.26296296296296295, 0.27037037037037037, -0.1388888888888889]","[0.21666666666666667, -0.2490740740740741, -0.33055555555555555]","[1, 1, 1]","[0, 0, 0]","[0, 0, 0]","[6.816570499999216, 13.89891250000801, 21.13185240000894]",0.007312860005185939,21.139158060002956,['A1'],['B2'],['C1'],['blue'],['yellow'],['salmon'],1283.7614055000013,None,7.0,3.647173200006364,1283.7614055000013,None,1288.7780521999957,None,8.0,7.097707100008847,1300.0274572000053,None,3.0,9.214808099990478,1296.1108669999958,None,3.0,3.931509299989557,<function functionImportanceB at 0x000002A300883488>,<function functionImportanceA at 0x000002A300883510>,<function functionImportanceC at 0x000002A300E68598>,,,6.0,5.064151300000958,6.0,3.931509299989557,7.0,4.964490300000762,<function functiondiffB at 0x000002A3008830D0>,<function functiondiffA at 0x000002A3002DF510>,<function functiondiffC at 0x000002A3008838C8>,,,,,1262.1645183000073,1308.1274036999966,None,1318.2937073000066,None,1313.3106147000071,None,29,001,2022_Jul_21_1016,2leo,2021.2.3,59.986563008828796,
3,8,Plan the interior of your living-room ,Stimuli/8A1.jpg,Stimuli/8A2.jpg,Stimuli/8A3.jpg,Stimuli/8B1.jpg,Stimuli/8B2.jpg,Stimuli/8B3.jpg,Stimuli/8C1.jpg,Stimuli/8C2.jpg,Stimuli/8C3.jpg,,,,,0,15,15,8,,,,,,,,1342.1266370000085,None,1343.1266041000054,None,1349.1265753000043,None,"[0.399, -0.003]","[-0.203, -0.347]","[-0.2, 0.346]","[0.07, 0.393]","[0.304, -0.26]","[-0.378, -0.136]","[0.306, 0.255]","[0.066, -0.395]","[-0.377, 0.138]",,8.55045994000102,25.250004640009138,19.250834440012113,"[0.39166666666666666, -0.375, 0.28055555555555556]","[0.004629629629629629, 0.11851851851851852, -0.225]","[1, 1, 1]","[0, 0, 0]","[0, 0, 0]","[8.548190000001341, 19.247965700007626, 25.247518000003765]",0.0017045400018105283,25.249003840013756,['A1'],['B2'],['C3'],['salmon'],['yellow'],['blue'],1379.8588736999955,None,7.0,3.429972199999611,1379.8588736999955,None,1385.1587322999985,None,6.0,8.647523200008436,1398.0251714000042,None,10.0,6.281614899999113,1392.058690100006,None,8.0,3.981482599992887,<function functionImportanceB at 0x000002A300E68EA0>,<function functionImportanceA at 0x000002A300E68F28>,<function functionImportanceC at 0x000002A300E681E0>,,,7.0,2.697716599999694,3.0,3.981482599992887,2.0,2.6644120999990264,<function functiondiffC at 0x000002A300883E18>,<function functiondiffA at 0x000002A3002DFE18>,<function functiondiffB at 0x000002A3008836A8>,,,,,1354.1445748999977,1410.1249408000003,None,1402.8583120999974,None,1406.891714700003,None,29,001,2022_Jul_21_1016,2leo,2021.2.3,59.986563008828796,
3,20,Plan a tea party with your friends,Stimuli/20A1.jpg,Stimuli/20A2.jpg,Stimuli/20A3.jpg,Stimuli/20B1.jpg,Stimuli/20B2.jpg,Stimuli/20B3.jpg,Stimuli/20C1.jpg,Stimuli/20C2.jpg,Stimuli/20C3.jpg,,,,,0,16,16,20,,,,,,,,1411.7910132999968,None,1412.7914844000043,None,1418.7913245999953,None,"[-0.2, 0.346]","[0.399, -0.003]","[-0.203, -0.347]","[-0.378, -0.136]","[0.07, 0.393]","[0.304, -0.26]","[-0.377, 0.138]","[0.306, 0.255]","[0.066, -0.395]",,8.47935504000634,21.579448239994235,11.863319039999624,"[-0.18425925925925926, 0.06666666666666667, 0.06851851851851852]","[-0.2861111111111111, -0.3472222222222222, 0.3194444444444444]","[1, 1, 1]","[0, 0, 0]","[0, 0, 0]","[8.476899699991918, 11.860400299992762, 21.576845400006277]",0.0018171400006394833,21.578491439999198,['A3'],['B2'],['C3'],['salmon'],['blue'],['yellow'],1444.5071540000063,None,6.0,4.062766599992756,1444.5071540000063,None,1456.6569099000044,None,8.0,6.798247099999571,1448.6903063000063,None,9.0,5.497858100003214,1460.9900481000077,None,2.0,3.481728500002646,<function functionImportanceC at 0x000002A300E68158>,<function functionImportanceB at 0x000002A300E689D8>,<function functionImportanceA at 0x000002A300E680D0>,,,4.0,3.9645211000024574,2.0,3.481728500002646,7.0,8.430941099999472,<function functiondiffA at 0x000002A3008839D8>,<function functiondiffB at 0x000002A300883D08>,<function functiondiffC at 0x000002A300E68B70>,,,,,1422.460082000005,1473.4899498000013,None,1476.8730720000021,None,1464.4235167000006,None,29,001,2022_Jul_21_1016,2leo,2021.2.3,59.986563008828796,
3,22,Plan a beach day with your friends,Stimuli/22A1.jpg,Stimuli/22A2.jpg,Stimuli/22A3.jpg,Stimuli/22B1.jpg,Stimuli/22B2.jpg,Stimuli/22B3.jpg,Stimuli/22C1.jpg,Stimuli/22C2.jpg,Stimuli/22C3.jpg,,,,,0,17,17,22,,,,,,,,1479.6892002999957,None,1480.6895506,None,1486.6896976999997,None,"[-0.377, 0.138]","[0.066, -0.395]","[0.306, 0.255]","[-0.2, 0.346]","[-0.203, -0.347]","[0.399, -0.003]","[-0.378, -0.136]","[0.304, -0.26]","[0.07, 0.393]",,11.931156580001698,8.126732579999953,15.06028237999999,"[-0.1787037037037037, 0.2824074074074074, 0.31851851851851853]","[-0.3416666666666667, 0.2222222222222222, -0.2574074074074074]","[1, 1, 1]","[0, 0, 0]","[0, 0, 0]","[8.120350600001984, 11.924822999993921, 15.053744499993627]",0.005530980008188635,15.059018779997132,['A3'],['B2'],['C2'],['blue'],['yellow'],['salmon'],1503.4054911999992,None,9.0,3.296859799986123,1503.4054911999992,None,1513.8721544,None,7.0,5.298399599996628,1506.7722671000083,None,3.0,7.030978399998276,1519.1387325999967,None,9.0,3.098322100006044,<function functionImportanceC at 0x000002A300E68620>,<function functionImportanceB at 0x000002A300883048>,<function functionImportanceA at 0x000002A300883A60>,,,6.0,4.064520899992203,5.0,3.098322100006044,0.0,2.7141950000077486,<function functiondiffA at 0x000002A300E68D08>,<function functiondiffB at 0x000002A300E68950>,<function functiondiffC at 0x000002A300883950>,,,,,1487.8672656999988,1524.9550702999986,None,1529.0383854999964,None,1522.221899199998,None,29,001,2022_Jul_21_1016,2leo,2021.2.3,59.986563008828796,
3,36,Plan your shopping for new clothing,Stimuli/36A1.jpg,Stimuli/36A2.jpg,Stimuli/36A3.jpg,Stimuli/36B1.jpg,Stimuli/36B2.jpg,Stimuli/36B3.jpg,Stimuli/36C1.jpg,Stimuli/36C2.jpg,Stimuli/36C3.jpg,,,,,0,18,18,36,,,,,,,,1531.1212182000017,None,1532.1215613000095,None,1538.1215604000026,None,"[0.07, 0.393]","[0.304, -0.26]","[-0.378, -0.136]","[0.399, -0.003]","[-0.203, -0.347]","[-0.2, 0.346]","[0.306, 0.255]","[0.066, -0.395]","[-0.377, 0.138]",,16.765226139992592,9.001596139991307,19.282578240003204,"[-0.23148148148148148, 0.01574074074074074, 0.03518518518518519]","[0.30833333333333335, 0.3314814814814815, -0.35]","[1, 1, 1]","[0, 0, 0]","[0, 0, 0]","[9.000632600000245, 16.764762000006158, 19.281507799998508]",6.443999882321805e-05,19.28147583999089,['A1'],['B3'],['C2'],['blue'],['yellow'],['salmon'],1559.0206102000084,None,10.0,3.146890899995924,1559.0206102000084,None,1572.7537941000046,None,2.0,7.281816400005482,1562.2206218000065,None,10.0,4.631006499999785,1566.887347099997,None,2.0,5.864903399997274,<function functionImportanceC at 0x000002A3011EB6A8>,<function functionImportanceA at 0x000002A300883268>,<function functionImportanceB at 0x000002A3011EB7B8>,,,3.0,2.531063300004462,0.0,5.864903399997274,6.0,2.5812068000086583,<function functiondiffC at 0x000002A3011EB0D0>,<function functiondiffA at 0x000002A300E687B8>,<function functiondiffB at 0x000002A300E68488>,,,,,1539.2543071999971,1585.820222800001,None,1580.0203801000025,None,1583.2202111000079,None,29,001,2022_Jul_21_1016,2leo,2021.2.3,59.986563008828796,
3,14,Plan your own Pizza for dinner,Stimuli/14A1.jpg,Stimuli/14A2.jpg,Stimuli/14A3.jpg,Stimuli/14B1.jpg,Stimuli/14B2.jpg,Stimuli/14B3.jpg,Stimuli/14C1.jpg,Stimuli/14C2.jpg,Stimuli/14C3.jpg,,,,,0,19,19,14,,,,,,,,1587.8697599000006,None,1588.8700821999955,None,1594.8701452999958,None,"[-0.2, 0.346]","[0.399, -0.003]","[-0.203, -0.347]","[-0.377, 0.138]","[0.306, 0.255]","[0.066, -0.395]","[-0.378, -0.136]","[0.07, 0.393]","[0.304, -0.26]",,17.27806137999869,13.278442280003219,7.629030680007418,"[0.0712962962962963, 0.2722222222222222, -0.1527777777777778]","[0.3212962962962963, 0.2111111111111111, -0.3398148148148148]","[1, 1, 1]","[0, 0, 0]","[0, 0, 0]","[7.621369500004221, 13.271159900003113, 17.270866699996986]",0.006525180011522025,17.277297580003506,['A3'],['B2'],['C2'],['blue'],['yellow'],['salmon'],1613.802659699999,None,8.0,3.5132348999904934,1613.802659699999,None,1627.0359178000072,None,8.0,2.4981721000076504,1617.3711752999952,None,7.0,7.06451010001183,1624.469344199999,None,10.0,2.514721900006407,<function functionImportanceC at 0x000002A3011EB1E0>,<function functionImportanceA at 0x000002A3011EB9D8>,<function functionImportanceB at 0x000002A3011EB950>,,,10.0,6.1141328000085196,7.0,2.514721900006407,3.0,4.480194300005678,<function functiondiffB at 0x000002A300E68C80>,<function functiondiffC at 0x000002A300E68840>,<function functiondiffA at 0x000002A300E68A60>,,,,,1596.0461169000046,1629.5025189000007,None,1635.618916300009,None,1638.0354891000025,None,29,001,2022_Jul_21_1016,2leo,2021.2.3,59.986563008828796,
3,24,Plan your Monday morning on a workday ,Stimuli/24A1.jpg,Stimuli/24A2.jpg,Stimuli/24A3.jpg,Stimuli/24B1.jpg,Stimuli/24B2.jpg,Stimuli/24B3.jpg,Stimuli/24C1.jpg,Stimuli/24C2.jpg,Stimuli/24C3.jpg,,,,,0,20,20,24,,,,,,,,1642.0350332999951,None,1643.0353388000076,None,1649.0352836999955,None,"[-0.377, 0.138]","[0.306, 0.255]","[0.066, -0.395]","[-0.378, -0.136]","[0.07, 0.393]","[0.304, -0.26]","[-0.2, 0.346]","[0.399, -0.003]","[-0.203, -0.347]",,15.906358740001451,12.090054940010305,6.5571644400042715,"[-0.19166666666666668, 0.06666666666666667, -0.34814814814814815]","[0.287962962962963, 0.32314814814814813, 0.09907407407407408]","[1, 1, 1]","[0, 0, 0]","[0, 0, 0]","[6.552358399989316, 12.085408699989785, 15.902092299991637]",0.003852340014418587,15.90564414000255,['A1'],['B2'],['C1'],['blue'],['salmon'],['yellow'],1666.5531790999958,None,10.0,2.213356499996735,1666.5531790999958,None,1685.1007383999968,None,10.0,2.431677199987462,1677.4510174000025,None,10.0,7.631345400004648,1668.819822999998,None,10.0,8.597439100005431,<function functionImportanceA at 0x000002A3011EBA60>,<function functionImportanceC at 0x000002A3011EB400>,<function functionImportanceB at 0x000002A3011EB598>,,,-0.0,2.331400199997006,0.0,8.597439100005431,7.0,6.081006299995352,<function functiondiffA at 0x000002A3011EB268>,<function functiondiffC at 0x000002A3011EB840>,<function functiondiffB at 0x000002A3011EB730>,,,,,1650.1642286999995,1696.4007663000084,None,1693.6181557999953,None,1687.5176190000057,None,29,001,2022_Jul_21_1016,2leo,2021.2.3,59.986563008828796,
3,6,Plan your wedding,Stimuli/6A1.jpg,Stimuli/6A2.jpg,Stimuli/6A3.jpg,Stimuli/6B1.jpg,Stimuli/6B2.jpg,Stimuli/6B3.jpg,Stimuli/6C1.jpg,Stimuli/6C2.jpg,Stimuli/6C3.jpg,,,,,0,21,21,6,,,,,,,,1698.2502097999968,None,1699.2507408000092,None,1705.250663800005,None,"[-0.377, 0.138]","[0.306, 0.255]","[0.066, -0.395]","[-0.378, -0.136]","[0.07, 0.393]","[0.304, -0.26]","[-0.2, 0.346]","[0.399, -0.003]","[-0.203, -0.347]",,16.86031488001754,22.043968080019113,7.827699780013063,"[-0.18611111111111112, 0.30925925925925923, 0.11388888888888889]","[-0.3175925925925926, 0.19907407407407407, 0.3851851851851852]","[1, 1, 1]","[0, 0, 0]","[0, 0, 0]","[7.81904050000594, 16.852282699997886, 22.03566170000704]",0.0075393800070742145,22.043006780018914,['A2'],['B2'],['C3'],['yellow'],['salmon'],['blue'],1732.8995580000046,None,3.0,2.9635570000100415,1732.8995580000046,None,1746.8824601000088,None,0.0,3.3816350999986753,1737.133081100008,None,0.0,3.864455100003397,1740.9662834000046,None,7.0,5.414975799998501,<function functionImportanceC at 0x000002A3011EBBF8>,<function functionImportanceA at 0x000002A3011EBAE8>,<function functionImportanceB at 0x000002A3011EB510>,,,10.0,2.214555200000177,10.0,5.414975799998501,3.0,3.18196970000281,<function functiondiffC at 0x000002A3011EBD90>,<function functiondiffA at 0x000002A3011EB2F0>,<function functiondiffB at 0x000002A3011EBF28>,,,,,1710.3972388999973,1756.5323732999968,None,1749.016062900002,None,1753.232487900008,None,29,001,2022_Jul_21_1016,2leo,2021.2.3,59.986563008828796,
3,41,Plan how you want to have dinner tonight ,Stimuli/41A1.jpg,Stimuli/41A2.jpg,Stimuli/41A3.jpg,Stimuli/41B1.jpg,Stimuli/41B2.jpg,Stimuli/41B3.jpg,Stimuli/41C1.jpg,Stimuli/41C2.jpg,Stimuli/41C3.jpg,,,,,0,22,22,41,,,,,,,,1757.865282800005,None,1758.8658266999992,None,1764.8654797000054,None,"[0.066, -0.395]","[0.306, 0.255]","[-0.377, 0.138]","[0.304, -0.26]","[0.07, 0.393]","[-0.378, -0.136]","[-0.203, -0.347]","[0.399, -0.003]","[-0.2, 0.346]",,12.851545619996614,10.185084119992098,5.719142219997593,"[-0.16666666666666666, 0.31851851851851853, 0.046296296296296294]","[0.2824074074074074, -0.2861111111111111, -0.32592592592592595]","[1, 1, 1]","[0, 0, 0]","[0, 0, 0]","[5.715280799995526, 10.181661800001166, 12.848367200000212]",0.002739919989835471,12.851100519997999,['A1'],['B1'],['C3'],['blue'],['yellow'],['salmon'],1779.598431899998,None,10.0,2.3472279999987222,1779.598431899998,None,1793.1648224999954,None,9.0,3.8983120000048075,1782.2317963999958,None,8.0,6.314691600011429,1788.3983468000079,None,2.0,4.748363500009873,<function functionImportanceC at 0x000002A300E682F0>,<function functionImportanceA at 0x000002A3011EB048>,<function functionImportanceB at 0x000002A300E68E18>,,,4.0,4.7983233999984805,0.0,4.748363500009873,3.0,2.797995599990827,<function functiondiffC at 0x000002A300E68D90>,<function functiondiffA at 0x000002A3011EBE18>,<function functiondiffB at 0x000002A300E68510>,,,,,1766.2662339999952,1802.4313535999972,None,1797.0314230000076,None,1799.6145404999988,None,29,001,2022_Jul_21_1016,2leo,2021.2.3,59.986563008828796,
3,4,Plan a game night at your place,Stimuli/4A1.jpg,Stimuli/4A2.jpg,Stimuli/4A3.jpg,Stimuli/4B1.jpg,Stimuli/4B2.jpg,Stimuli/4B3.jpg,Stimuli/4C1.jpg,Stimuli/4C2.jpg,Stimuli/4C3.jpg,,,,,0,23,23,4,,,,,,,,1806.747549000007,None,1807.747690899996,None,1813.7477565000008,None,"[-0.377, 0.138]","[0.306, 0.255]","[0.066, -0.395]","[-0.2, 0.346]","[0.399, -0.003]","[-0.203, -0.347]","[-0.378, -0.136]","[0.07, 0.393]","[0.304, -0.26]",,8.477130619998206,3.277292419996229,12.82714341999963,"[-0.1638888888888889, 0.03148148148148148, -0.33611111111111114]","[-0.32592592592592595, -0.35648148148148145, -0.1259259259259259]","[1, 1, 1]","[0, 0, 0]","[0, 0, 0]","[3.2686250999977347, 8.46872770000482, 12.818396200003917]",0.007785019988659769,12.826113620001706,['A3'],['B3'],['C1'],['yellow'],['blue'],['salmon'],1830.4636999000068,None,10.0,2.2971581000019796,1830.4636999000068,None,1836.647140800007,None,10.0,2.1818858000042383,1834.1469636999973,None,10.0,3.8310989000019617,1839.8635474000039,None,6.0,4.831522699998459,<function functionImportanceC at 0x000002A3017942F0>,<function functionImportanceB at 0x000002A301794AE8>,<function functionImportanceA at 0x000002A3011EB488>,,,3.0,5.047827700007474,10.0,4.831522699998459,1.0,4.197807100004866,<function functiondiffC at 0x000002A3017940D0>,<function functiondiffB at 0x000002A3011EBC80>,<function functiondiffA at 0x000002A3011EBD08>,,,,,1817.179720500004,1846.8968603999965,None,1844.0633299000037,None,1852.2799165000033,None,29,001,2022_Jul_21_1016,2leo,2021.2.3,59.986563008828796,
3,29,Plan a day in the mountains ,Stimuli/29A1.jpg,Stimuli/29A2.jpg,Stimuli/29A3.jpg,Stimuli/29B1.jpg,Stimuli/29B2.jpg,Stimuli/29B3.jpg,Stimuli/29C1.jpg,Stimuli/29C2.jpg,Stimuli/29C3.jpg,,,,,0,24,24,29,,,,,,,,1855.681848399996,None,1856.6963185000059,None,1862.6965640999988,None,"[0.304, -0.26]","[-0.378, -0.136]","[0.07, 0.393]","[0.066, -0.395]","[-0.377, 0.138]","[0.306, 0.255]","[-0.203, -0.347]","[-0.2, 0.346]","[0.399, -0.003]",,25.31174613998155,12.528804839981603,7.695624439977109,"[-0.18981481481481483, 0.025, 0.025925925925925925]","[-0.29074074074074074, -0.325, 0.34444444444444444]","[1, 1, 1]","[0, 0, 0]","[0, 0, 0]","[7.687798400002066, 12.521266800002195, 25.30427100000088]",0.006867839983897284,25.310937239977648,['A3'],['B1'],['C1'],['yellow'],['salmon'],['blue'],1889.6954879999976,None,2.0,2.596442300011404,1889.6954879999976,None,1899.5787620000046,None,2.0,5.0153642000077525,1892.3955688999995,None,7.0,7.214278899991768,1904.7116550000064,None,0.0,2.8979133000102593,<function functionImportanceC at 0x000002A301794950>,<function functionImportanceB at 0x000002A301794730>,<function functionImportanceA at 0x000002A301794268>,,,1.0,5.497771399997873,6.0,2.8979133000102593,8.0,1.9149488999973983,<function functiondiffB at 0x000002A3011EBB70>,<function functiondiffA at 0x000002A3011EB378>,<function functiondiffC at 0x000002A3011EB620>,,,,,1863.9065263000084,1907.511972799999,None,1914.9617586999957,None,1913.0450815000077,None,29,001,2022_Jul_21_1016,2leo,2021.2.3,59.986563008828796,
3,17,Plan a day in Barcelona with a friend who is new to the city,Stimuli/17A1.jpg,Stimuli/17A2.jpg,Stimuli/17A3.jpg,Stimuli/17B1.jpg,Stimuli/17B2.jpg,Stimuli/17B3.jpg,Stimuli/17C1.jpg,Stimuli/17C2.jpg,Stimuli/17C3.jpg,,,,,0,25,25,17,,,,,,,,1917.4285780000064,None,1918.4282176999986,None,1924.4282134000096,None,"[-0.377, 0.138]","[0.306, 0.255]","[0.066, -0.395]","[-0.378, -0.136]","[0.07, 0.393]","[0.304, -0.26]","[-0.2, 0.346]","[0.399, -0.003]","[-0.203, -0.347]",,11.390978679992259,2.975101079980959,14.60845467998297,"[0.041666666666666664, -0.3768518518518518, -0.22592592592592592]","[0.38425925925925924, 0.1675925925925926, 0.29259259259259257]","[1, 1, 1]","[0, 0, 0]","[0, 0, 0]","[2.9695993999921484, 11.385847500001546, 14.602757699991344]",0.0047260799910873175,14.607106879993808,['A1'],['B2'],['C1'],['blue'],['yellow'],['salmon'],1940.6943255000078,None,10.0,1.7632389000063995,1940.6943255000078,None,1945.7114715000062,None,10.0,2.5651520999963395,1942.5276014999981,None,10.0,3.164604000005056,1948.3273828999954,None,6.0,2.798649200005457,<function functionImportanceC at 0x000002A3017947B8>,<function functionImportanceB at 0x000002A301794D08>,<function functionImportanceA at 0x000002A3017941E0>,,,0.0,1.781210800007102,0.0,2.798649200005457,2.0,2.2978999000042677,<function functiondiffC at 0x000002A301794BF8>,<function functiondiffB at 0x000002A3011EBEA0>,<function functiondiffA at 0x000002A3011EB8C8>,,,,,1925.6067676000093,1954.0107434999954,None,1951.0607767000038,None,1955.810631100001,None,29,001,2022_Jul_21_1016,2leo,2021.2.3,59.986563008828796,
3,7,Plan your Sunday breakfast ,Stimuli/7A1.jpg,Stimuli/7A2.jpg,Stimuli/7A3.jpg,Stimuli/7B1.jpg,Stimuli/7B2.jpg,Stimuli/7B3.jpg,Stimuli/7C1.jpg,Stimuli/7C2.jpg,Stimuli/7C3.jpg,,,,,0,26,26,7,,,,,,,,1957.6275386000052,None,1958.6274176000006,None,1964.627216000008,None,"[0.306, 0.255]","[-0.377, 0.138]","[0.066, -0.395]","[0.399, -0.003]","[-0.2, 0.346]","[-0.203, -0.347]","[0.07, 0.393]","[-0.378, -0.136]","[0.304, -0.26]",,6.341823039998417,21.624928839999484,14.192104739995557,"[-0.35462962962962963, 0.062037037037037036, 0.35462962962962963]","[0.08981481481481482, 0.32407407407407407, 0.05740740740740741]","[1, 1, 1]","[0, 0, 0]","[0, 0, 0]","[6.3308181000029435, 14.180704600003082, 21.61378220000188]",0.010457939992193133,21.624075739993714,['A2'],['B1'],['C1'],['yellow'],['salmon'],['blue'],1992.7261662000092,None,8.0,2.3804221999889705,1992.7261662000092,None,2002.3925159000064,None,7.0,7.165091400005622,1996.3595006999967,None,0.0,5.347628099989379,2009.4924765000032,None,10.0,3.515280799998436,<function functionImportanceC at 0x000002A301794D90>,<function functionImportanceB at 0x000002A301794048>,<function functionImportanceA at 0x000002A300E68730>,,,2.0,3.3145122999994783,8.0,3.515280799998436,0.0,2.0809429999935674,<function functiondiffC at 0x000002A3017949D8>,<function functiondiffB at 0x000002A301794A60>,<function functiondiffA at 0x000002A301794B70>,,,,,1970.6467938999995,2017.2758093000011,None,2011.559214000008,None,2020.4423687999952,None,29,001,2022_Jul_21_1016,2leo,2021.2.3,59.986563008828796,
3,39,Plan what kind of watch you want to buy,Stimuli/39A1.jpg,Stimuli/39A2.jpg,Stimuli/39A3.jpg,Stimuli/39B1.jpg,Stimuli/39B2.jpg,Stimuli/39B3.jpg,Stimuli/39C1.jpg,Stimuli/39C2.jpg,Stimuli/39C3.jpg,,,,,0,27,27,39,,,,,,,,2021.559871000005,None,2022.5588003000012,None,2028.5587588000053,None,"[0.304, -0.26]","[0.07, 0.393]","[-0.378, -0.136]","[0.066, -0.395]","[0.306, 0.255]","[-0.377, 0.138]","[-0.203, -0.347]","[0.399, -0.003]","[-0.2, 0.346]",,18.67589399999997,6.6766915999905905,15.80961299999035,"[0.2935185185185185, -0.13703703703703704, 0.262037037037037]","[0.16944444444444445, -0.26666666666666666, -0.20185185185185187]","[1, 1, 1]","[0, 0, 0]","[0, 0, 0]","[6.661802499991609, 15.794601399989915, 18.66138589999173]",0.014086900002439506,18.6752409000037,['A1'],['B2'],['C1'],['blue'],['yellow'],['salmon'],2048.9413253999955,None,10.0,1.8971632000029786,2048.9413253999955,None,2050.941500400004,None,10.0,3.8979862999985926,2058.0579204000096,None,3.0,4.881576200001291,2054.8746324999956,None,10.0,3.1484316999994917,<function functionImportanceB at 0x000002A301794378>,<function functionImportanceA at 0x000002A301794510>,<function functionImportanceC at 0x000002A3024B68C8>,,,0.0,2.1310837999917567,7.0,3.1484316999994917,0.0,2.864199700008612,<function functiondiffA at 0x000002A3017948C8>,<function functiondiffB at 0x000002A301794598>,<function functiondiffC at 0x000002A3024B6048>,,,,,2029.7944579000032,2065.741093500008,None,2067.8910409999953,None,2062.857879899995,None,29,001,2022_Jul_21_1016,2leo,2021.2.3,59.986563008828796,
3,15,Plan your own Pasta for lunch,Stimuli/15A1.jpg,Stimuli/15A2.jpg,Stimuli/15A3.jpg,Stimuli/15B1.jpg,Stimuli/15B2.jpg,Stimuli/15B3.jpg,Stimuli/15C1.jpg,Stimuli/15C2.jpg,Stimuli/15C3.jpg,,,,,0,28,28,15,,,,,,,,2070.4255231999996,None,2071.4407924999978,None,2077.440758900004,None,"[0.07, 0.393]","[0.304, -0.26]","[-0.378, -0.136]","[0.306, 0.255]","[0.066, -0.395]","[-0.377, 0.138]","[0.399, -0.003]","[-0.203, -0.347]","[-0.2, 0.346]",,12.937011519999942,16.387131319992477,6.237658419995569,"[-0.15925925925925927, 0.0712962962962963, 0.0824074074074074]","[0.3592592592592593, 0.32037037037037036, -0.3731481481481482]","[1, 1, 1]","[0, 0, 0]","[0, 0, 0]","[6.230622799994308, 12.930644599997322, 16.380424699993455]",0.005940819988609292,16.38609981999616,['A1'],['B2'],['C3'],['blue'],['salmon'],['yellow'],2096.206793400008,None,9.0,2.8970182000048226,2096.206793400008,None,2102.3569093999977,None,8.0,4.54857680000714,2107.623365499996,None,5.0,3.598727600008715,2099.240247199996,None,10.0,3.1808573999878718,<function functionImportanceA at 0x000002A301794158>,<function functionImportanceB at 0x000002A3024B6BF8>,<function functionImportanceC at 0x000002A3024B6620>,,,3.0,2.181635200002347,2.0,3.1808573999878718,8.0,4.248029599999427,<function functiondiffA at 0x000002A301794EA0>,<function functiondiffB at 0x000002A301794620>,<function functiondiffC at 0x000002A3024B60D0>,,,,,2079.356479000009,2114.789831000002,None,2117.1232102000067,None,2110.5232345999975,None,29,001,2022_Jul_21_1016,2leo,2021.2.3,59.986563008828796,
3,5,Plan a birthday party for your younger self when you turn eight,Stimuli/5A1.jpg,Stimuli/5A2.jpg,Stimuli/5A3.jpg,Stimuli/5B1.jpg,Stimuli/5B2.jpg,Stimuli/5B3.jpg,Stimuli/5C1.jpg,Stimuli/5C2.jpg,Stimuli/5C3.jpg,,,,,0,29,29,5,,,,,,,,2120.357155100006,None,2121.3561082000087,None,2127.356189600003,None,"[-0.203, -0.347]","[0.399, -0.003]","[-0.2, 0.346]","[0.066, -0.395]","[0.306, 0.255]","[-0.377, 0.138]","[0.304, -0.26]","[0.07, 0.393]","[-0.378, -0.136]",,22.923602819995722,31.823306520003825,27.390672420006013,"[0.337037037037037, -0.3333333333333333, 0.275]","[-0.020370370370370372, -0.06574074074074074, 0.225]","[1, 1, 1]","[0, 0, 0]","[0, 0, 0]","[22.91441900000791, 27.3808987000084, 31.813867100005154]",0.008672719995956868,31.822348019995843,['A2'],['B2'],['C3'],['yellow'],['salmon'],['blue'],2165.421650899996,None,2.0,3.0972234000073513,2165.421650899996,None,2179.7381491999986,None,0.0,5.181458399994881,2184.1045956000016,None,7.0,3.531750900001498,2171.122736999998,None,7.0,9.64743310000631,<function functionImportanceA at 0x000002A3024B6158>,<function functionImportanceB at 0x000002A3024B6F28>,<function functionImportanceC at 0x000002A3024B66A8>,,,10.0,7.78101279999828,4.0,9.64743310000631,10.0,2.8309874999977183,<function functiondiffB at 0x000002A300E68BF8>,<function functiondiffC at 0x000002A3011EB158>,<function functiondiffA at 0x000002A300E688C8>,,,,,2133.143780700004,2187.3044339000044,None,2194.8876821000013,None,2198.4878054,None,29,001,2022_Jul_21_1016,2leo,2021.2.3,59.986563008828796,
3,32,Plan how you want to relax after a workday,Stimuli/32A1.jpg,Stimuli/32A2.jpg,Stimuli/32A3.jpg,Stimuli/32B1.jpg,Stimuli/32B2.jpg,Stimuli/32B3.jpg,Stimuli/32C1.jpg,Stimuli/32C2.jpg,Stimuli/32C3.jpg,,,,,0,30,30,32,,,,,,,,2210.5873570999975,None,2211.5873946000065,None,2217.5872791,None,"[0.07, 0.393]","[0.304, -0.26]","[-0.378, -0.136]","[0.399, -0.003]","[-0.203, -0.347]","[-0.2, 0.346]","[0.306, 0.255]","[0.066, -0.395]","[-0.377, 0.138]",,25.404243219993077,16.05481201999646,9.788559620006708,"[0.2916666666666667, 0.36944444444444446, 0.09444444444444444]","[0.2037037037037037, 0.017592592592592594, 0.4398148148148148]","[1, 1, 1]","[0, 0, 0]","[0, 0, 0]","[9.783967799987295, 16.050478499993915, 25.40018459998828]",0.0036091200017835945,25.403795920006814,['A1'],['B1'],['C1'],['yellow'],['salmon'],['blue'],2246.552944199997,None,8.0,3.047189000004437,2246.552944199997,None,2250.4864514000074,None,9.0,5.380800500002806,2255.069560200005,None,1.0,3.1987147999898298,2259.4539136000094,None,8.0,5.198578600000474,<function functionImportanceB at 0x000002A3024B6AE8>,<function functionImportanceC at 0x000002A3024B6C80>,<function functionImportanceA at 0x000002A3024B6378>,,,0.0,2.6145778999925824,5.0,5.198578600000474,2.0,2.1144811999984086,<function functiondiffC at 0x000002A3024B6B70>,<function functiondiffB at 0x000002A3024B6840>,<function functiondiffA at 0x000002A3024B61E0>,,,,,2220.6846252999967,2268.8524808000075,None,2263.452676800007,None,2271.6688962000044,None,29,001,2022_Jul_21_1016,2leo,2021.2.3,59.986563008828796,
3,40,Plan to see a sports event ,Stimuli/40A1.jpg,Stimuli/40A2.jpg,Stimuli/40A3.jpg,Stimuli/40B1.jpg,Stimuli/40B2.jpg,Stimuli/40B3.jpg,Stimuli/40C1.jpg,Stimuli/40C2.jpg,Stimuli/40C3.jpg,,,,,0,31,31,40,,,,,,,,2272.9534631999995,None,2273.952427299999,None,2279.9520567,None,"[0.066, -0.395]","[0.306, 0.255]","[-0.377, 0.138]","[0.304, -0.26]","[0.07, 0.393]","[-0.378, -0.136]","[-0.203, -0.347]","[0.399, -0.003]","[-0.2, 0.346]",,6.531269580009393,10.431451080003171,22.8149030800123,"[0.044444444444444446, 0.33240740740740743, -0.16296296296296298]","[-0.3296296296296296, -0.2074074074074074, -0.3138888888888889]","[1, 1, 1]","[0, 0, 0]","[0, 0, 0]","[6.521917699996266, 10.421811899999739, 22.80492699999013]",0.008920680003939196,22.813720380014274,['A1'],['B1'],['C1'],['blue'],['salmon'],['yellow'],2304.5846220999956,None,9.0,3.2968240000045625,2304.5846220999956,None,2311.101471300004,None,10.0,2.581738299995777,2307.9513985000085,None,0.0,2.981268999996246,2313.601369099997,None,8.0,3.3822068000008585,<function functionImportanceC at 0x000002A302115048>,<function functionImportanceB at 0x000002A300E68268>,<function functionImportanceA at 0x000002A300E68AE8>,,,2.0,4.064916200004518,3.0,3.3822068000008585,2.0,3.4977941999968607,<function functiondiffA at 0x000002A3024B6510>,<function functiondiffB at 0x000002A3024B62F0>,<function functiondiffC at 0x000002A3024B6400>,,,,,2281.2959858999966,2320.467874599999,None,2324.5178087999957,None,2316.9180189000035,None,29,001,2022_Jul_21_1016,2leo,2021.2.3,59.986563008828796,
3,3,Plan a movie night with a friend,Stimuli/3A1.jpg,Stimuli/3A2.jpg,Stimuli/3A3.jpg,Stimuli/3B1.jpg,Stimuli/3B2.jpg,Stimuli/3B3.jpg,Stimuli/3C1.jpg,Stimuli/3C2.jpg,Stimuli/3C3.jpg,,,,,0,32,32,3,,,,,,,,2327.8547628000088,None,2328.8673951999954,None,2334.8675158999977,None,"[-0.203, -0.347]","[0.399, -0.003]","[-0.2, 0.346]","[0.066, -0.395]","[0.306, 0.255]","[-0.377, 0.138]","[0.304, -0.26]","[0.07, 0.393]","[-0.378, -0.136]",,12.023167299994384,7.590138500003377,14.19031370000448,"[0.287962962962963, -0.13425925925925927, 0.05648148148148148]","[0.21203703703703702, 0.2833333333333333, 0.3212962962962963]","[1, 1, 1]","[0, 0, 0]","[0, 0, 0]","[7.582872599989059, 12.016065099989646, 14.182822299990221]",0.0064581000042380765,14.189182799993432,['A3'],['B2'],['C2'],['salmon'],['yellow'],['blue'],2353.050182200008,None,9.0,2.680815200001234,2353.050182200008,None,2365.8499916,None,7.0,6.0650947999965865,2362.533398600004,None,2.0,4.2817194999952335,2355.800329400008,None,8.0,5.030564899992896,<function functionImportanceA at 0x000002A3024B6730>,<function functionImportanceC at 0x000002A302115488>,<function functionImportanceB at 0x000002A300E686A8>,,,3.0,3.414362199997413,3.0,5.030564899992896,1.0,5.697642099999939,<function functiondiffC at 0x000002A302115840>,<function functiondiffA at 0x000002A3024B67B8>,<function functiondiffB at 0x000002A301794488>,,,,,2338.4008211000037,2382.1994660000055,None,2371.533221400008,None,2376.133103,None,29,001,2022_Jul_21_1016,2leo,2021.2.3,59.986563008828796,
3,33,Plan the items to decorate your Christmas tree,Stimuli/33A1.jpg,Stimuli/33A2.jpg,Stimuli/33A3.jpg,Stimuli/33B1.jpg,Stimuli/33B2.jpg,Stimuli/33B3.jpg,Stimuli/33C1.jpg,Stimuli/33C2.jpg,Stimuli/33C3.jpg,,,,,0,33,33,33,,,,,,,,2384.7840297000075,None,2385.7992777000036,None,2391.7994507999974,None,"[0.066, -0.395]","[0.306, 0.255]","[-0.377, 0.138]","[-0.203, -0.347]","[0.399, -0.003]","[-0.2, 0.346]","[0.304, -0.26]","[0.07, 0.393]","[-0.378, -0.136]",,17.2439326599997,6.932459460003884,14.29458786000032,"[0.43425925925925923, 0.019444444444444445, 0.2712962962962963]","[0.003703703703703704, 0.33796296296296297, 0.262037037037037]","[1, 1, 1]","[0, 0, 0]","[0, 0, 0]","[6.923039000001154, 14.284924099993077, 17.234794000003603]",0.008632459997897968,17.243210259999614,['A2'],['B2'],['C2'],['yellow'],['salmon'],['blue'],2411.2152904999966,None,6.0,3.58040940000501,2411.2152904999966,None,2414.898721000005,None,3.0,6.66429970000172,2421.6149468000076,None,7.0,2.982212900009472,2425.065181099999,None,5.0,3.8830196000053547,<function functionImportanceB at 0x000002A302115E18>,<function functionImportanceC at 0x000002A3021157B8>,<function functionImportanceA at 0x000002A3024B6D90>,,,6.0,1.614305199997034,3.0,3.8830196000053547,3.0,1.7815392999909818,<function functiondiffC at 0x000002A3017946A8>,<function functiondiffB at 0x000002A3024B6D08>,<function functiondiffA at 0x000002A3024B6268>,,,,,2393.5093013000005,2431.015080099998,None,2428.4149256999954,None,2432.7650192,None,29,001,2022_Jul_21_1016,2leo,2021.2.3,59.986563008828796,
3,19,Plan how you want your garden to look like,Stimuli/19A1.jpg,Stimuli/19A2.jpg,Stimuli/19A3.jpg,Stimuli/19B1.jpg,Stimuli/19B2.jpg,Stimuli/19B3.jpg,Stimuli/19C1.jpg,Stimuli/19C2.jpg,Stimuli/19C3.jpg,,,,,0,34,34,19,,,,,,,,2433.950129600009,None,2434.9646350999974,None,2440.9647357000067,None,"[0.306, 0.255]","[-0.377, 0.138]","[0.066, -0.395]","[0.07, 0.393]","[-0.378, -0.136]","[0.304, -0.26]","[0.399, -0.003]","[-0.2, 0.346]","[-0.203, -0.347]",,5.163445480007795,14.846519680009806,9.54731088000699,"[-0.30833333333333335, -0.15555555555555556, 0.03425925925925926]","[0.11018518518518519, 0.33425925925925926, 0.3509259259259259]","[1, 1, 1]","[0, 0, 0]","[0, 0, 0]","[5.15259359999618, 9.536060799990082, 14.835478199995123]",0.010249380007735454,14.845676680008182,['A2'],['B1'],['C2'],['blue'],['salmon'],['yellow'],2459.8974670000025,None,9.0,3.1303625000000466,2459.8974670000025,None,2464.197418900003,None,7.0,6.664303500001552,2475.5804667000048,None,3.0,4.09889110000222,2469.797299500002,None,5.0,4.448319899995113,<function functionImportanceB at 0x000002A302115AE8>,<function functionImportanceA at 0x000002A3021156A8>,<function functionImportanceC at 0x000002A3021150D0>,,,7.0,2.214454700006172,3.0,4.448319899995113,5.0,2.7310045000049286,<function functiondiffC at 0x000002A302115730>,<function functiondiffB at 0x000002A302115598>,<function functiondiffA at 0x000002A3024B6EA0>,,,,,2444.596325400009,2483.2634304999956,None,2478.6971527999995,None,2485.263522399997,None,29,001,2022_Jul_21_1016,2leo,2021.2.3,59.986563008828796,
3,2,Plan which ingredients you want to use for cooking dinner today,Stimuli/2A1.jpg,Stimuli/2A2.jpg,Stimuli/2A3.jpg,Stimuli/2B1.jpg,Stimuli/2B2.jpg,Stimuli/2B3.jpg,Stimuli/2C1.jpg,Stimuli/2C2.jpg,Stimuli/2C3.jpg,,,,,0,35,35,2,,,,,,,,2487.515567800001,None,2488.5299257000006,None,2494.5299284000066,None,"[-0.2, 0.346]","[0.399, -0.003]","[-0.203, -0.347]","[-0.378, -0.136]","[0.07, 0.393]","[0.304, -0.26]","[-0.377, 0.138]","[0.306, 0.255]","[0.066, -0.395]",,16.039781299972674,6.80665119997866,21.890022699983092,"[-0.3425925925925926, 0.4166666666666667, -0.29444444444444445]","[-0.09814814814814815, -0.030555555555555555, 0.06296296296296296]","[1, 1, 1]","[0, 0, 0]","[0, 0, 0]","[6.796018200009712, 16.029302299997653, 21.87909220000438]",0.00994529998570215,21.888759299981757,['A2'],['B1'],['C1'],['blue'],['salmon'],['yellow'],2523.012422800006,None,9.0,2.9632926000049338,2523.012422800006,None,2533.9788558,None,3.0,6.898068499998772,2526.713420900007,None,10.0,4.614386600005673,2538.6640049999987,None,7.0,6.548448100002133,<function functionImportanceC at 0x000002A302115C80>,<function functionImportanceB at 0x000002A302115A60>,<function functionImportanceA at 0x000002A301794C80>,,,4.0,5.64813580000191,7.0,6.548448100002133,9.0,2.2645631000050344,<function functiondiffC at 0x000002A3021158C8>,<function functiondiffA at 0x000002A3021151E0>,<function functiondiffB at 0x000002A3021152F0>,,,,,2500.6688326000003,2553.028363000005,None,2544.311973899996,None,2550.2618083999987,None,29,001,2022_Jul_21_1016,2leo,2021.2.3,59.986563008828796,
3,12,Plan the ingredients to mix yourself a cocktail,Stimuli/12A1.jpg,Stimuli/12A2.jpg,Stimuli/12A3.jpg,Stimuli/12B1.jpg,Stimuli/12B2.jpg,Stimuli/12B3.jpg,Stimuli/12C1.jpg,Stimuli/12C2.jpg,Stimuli/12C3.jpg,,,,,0,36,36,12,,,,,,,,2557.3973075999966,None,2558.4114402999985,None,2564.4115896000003,None,"[0.304, -0.26]","[-0.378, -0.136]","[0.07, 0.393]","[-0.203, -0.347]","[-0.2, 0.346]","[0.399, -0.003]","[0.066, -0.395]","[-0.377, 0.138]","[0.306, 0.255]",,11.458277340003406,20.44197754000197,4.375625739994575,"[0.053703703703703705, -0.4583333333333333, -0.14537037037037037]","[-0.31296296296296294, -0.09537037037037037, 0.36944444444444446]","[1, 1, 1]","[0, 0, 0]","[0, 0, 0]","[4.36111750001146, 11.444184899999527, 20.42761650000466]",0.013564740002038889,20.440925939998124,['A2'],['B2'],['C1'],['blue'],['salmon'],['yellow'],2586.5273330000055,None,7.0,5.41315520000353,2586.5273330000055,None,2600.593895500002,None,3.0,2.8151687999925343,2597.4772335000016,None,7.0,3.0315625999937765,2592.0606155999994,None,9.0,5.431110599995009,<function functionImportanceA at 0x000002A301794E18>,<function functionImportanceC at 0x000002A30290C950>,<function functionImportanceB at 0x000002A301794840>,,,2.0,3.681355099994107,3.0,5.431110599995009,6.0,6.614406900000176,<function functiondiffA at 0x000002A3021159D8>,<function functiondiffB at 0x000002A302115400>,<function functiondiffC at 0x000002A302115D90>,,,,,2565.6139851000044,2609.9436520000017,None,2613.643506200009,None,2603.3105657999986,None,29,001,2022_Jul_21_1016,2leo,2021.2.3,59.986563008828796,
3,35,Plan how you want to do your grocery shopping ,Stimuli/35A1.jpg,Stimuli/35A2.jpg,Stimuli/35A3.jpg,Stimuli/35B1.jpg,Stimuli/35B2.jpg,Stimuli/35B3.jpg,Stimuli/35C1.jpg,Stimuli/35C2.jpg,Stimuli/35C3.jpg,,,,,0,37,37,35,,,,,,,,2616.1955879000016,None,2617.2099158000055,None,2623.209931999998,None,"[-0.203, -0.347]","[-0.2, 0.346]","[0.399, -0.003]","[0.066, -0.395]","[-0.377, 0.138]","[0.306, 0.255]","[0.304, -0.26]","[-0.378, -0.136]","[0.07, 0.393]",,20.946089899982326,16.613224699991406,9.663653299983707,"[0.30277777777777776, 0.10277777777777777, 0.35]","[-0.22962962962962963, -0.3148148148148148, -0.03518518518518519]","[1, 1, 1]","[0, 0, 0]","[0, 0, 0]","[9.646651499992004, 16.596481199987466, 20.929408399999375]",0.016058199980761856,20.94545119999384,['A3'],['B1'],['C1'],['yellow'],['blue'],['salmon'],2645.8592653000087,None,7.0,3.513778699998511,2645.8592653000087,None,2654.9423057999957,None,6.0,3.648705300001893,2658.5256756000017,None,2.0,4.498461499999394,2649.459169199996,None,9.0,5.4144594999961555,<function functionImportanceA at 0x000002A301794400>,<function functionImportanceB at 0x000002A30290C488>,<function functionImportanceC at 0x000002A30290C598>,,,4.0,3.047870700000203,3.0,5.4144594999961555,0.0,2.3144620999955805,<function functiondiffC at 0x000002A30290C158>,<function functiondiffB at 0x000002A30290C2F0>,<function functiondiffA at 0x000002A30290C0D0>,,,,,2624.445470599996,2666.158737000005,None,2663.025469100001,None,2669.2086448000045,None,29,001,2022_Jul_21_1016,2leo,2021.2.3,59.986563008828796,
3,38,Plan how you want to go for a run,Stimuli/38A1.jpg,Stimuli/38A2.jpg,Stimuli/38A3.jpg,Stimuli/38B1.jpg,Stimuli/38B2.jpg,Stimuli/38B3.jpg,Stimuli/38C1.jpg,Stimuli/38C2.jpg,Stimuli/38C3.jpg,,,,,0,38,38,38,,,,,,,,2671.0442377,None,2672.0584724000073,None,2678.0586410999967,None,"[0.066, -0.395]","[-0.377, 0.138]","[0.306, 0.255]","[-0.203, -0.347]","[-0.2, 0.346]","[0.399, -0.003]","[0.304, -0.26]","[-0.378, -0.136]","[0.07, 0.393]",,10.108215019994532,12.558839519988396,4.725501319990144,"[-0.31574074074074077, -0.30462962962962964, -0.12962962962962962]","[-0.08055555555555556, 0.08703703703703704, -0.2740740740740741]","[1, 1, 1]","[0, 0, 0]","[0, 0, 0]","[4.7193082999874605, 10.102533799989033, 12.55299009999726]",0.005185319983866066,12.5578368199931,['A2'],['B1'],['C2'],['salmon'],['blue'],['yellow'],2692.3246979999967,None,10.0,2.0632079000060912,2692.3246979999967,None,2694.4579372000007,None,10.0,4.431122299996787,2703.7076384999964,None,7.0,3.4485571999975946,2698.9080595999985,None,8.0,4.698627599995234,<function functionImportanceB at 0x000002A302115620>,<function functionImportanceA at 0x000002A302115F28>,<function functionImportanceC at 0x000002A302115950>,,,-0.0,2.5809995000017807,3.0,4.698627599995234,2.0,2.164575299990247,<function functiondiffB at 0x000002A30290C840>,<function functiondiffA at 0x000002A30290C7B8>,<function functiondiffC at 0x000002A30290C620>,,,,,2679.2875942999963,2707.057907399998,None,2711.8576425000065,None,2709.657728300008,None,29,001,2022_Jul_21_1016,2leo,2021.2.3,59.986563008828796,
3,11,Plan a hike in nature on a free day,Stimuli/11A1.jpg,Stimuli/11A2.jpg,Stimuli/11A3.jpg,Stimuli/11B1.jpg,Stimuli/11B2.jpg,Stimuli/11B3.jpg,Stimuli/11C1.jpg,Stimuli/11C2.jpg,Stimuli/11C3.jpg,,,,,0,39,39,11,,,,,,,,2714.0284426,None,2715.0407997,None,2721.040712300004,None,"[0.07, 0.393]","[0.304, -0.26]","[-0.378, -0.136]","[0.306, 0.255]","[0.066, -0.395]","[-0.377, 0.138]","[0.399, -0.003]","[-0.203, -0.347]","[-0.2, 0.346]",,25.784479800000554,6.052605999997468,11.236505199995008,"[0.1, -0.16296296296296298, 0.32407407407407407]","[-0.3648148148148148, -0.33425925925925926, -0.18796296296296297]","[1, 1, 1]","[0, 0, 0]","[0, 0, 0]","[6.042109099988011, 11.241128199995728, 25.774242300001788]",0.009695400003693067,25.78369830000156,['A2'],['B2'],['C2'],['yellow'],['salmon'],['blue'],2748.4564524000016,None,8.0,2.4471392999985255,2748.4564524000016,None,2750.973019500001,None,10.0,6.147865400009323,2757.1398213000066,None,2.0,2.615460000000894,2759.7730188999994,None,10.0,2.4649216999969212,<function functionImportanceB at 0x000002A302115BF8>,<function functionImportanceC at 0x000002A302115158>,<function functionImportanceA at 0x000002A30290C400>,,,0.0,3.330692600007751,2.0,2.4649216999969212,10.0,2.298381000000518,<function functiondiffC at 0x000002A3028346A8>,<function functiondiffA at 0x000002A30290CD90>,<function functiondiffB at 0x000002A30290CAE8>,,,,,2722.1975854000048,2768.122850300002,None,2762.222926900009,None,2765.8063404999994,None,29,001,2022_Jul_21_1016,2leo,2021.2.3,59.986563008828796,
3,30,Plan your sport work out for tomorrow,Stimuli/30A1.jpg,Stimuli/30A2.jpg,Stimuli/30A3.jpg,Stimuli/30B1.jpg,Stimuli/30B2.jpg,Stimuli/30B3.jpg,Stimuli/30C1.jpg,Stimuli/30C2.jpg,Stimuli/30C3.jpg,,,,,0,40,40,30,,,,,,,,2770.975651200002,None,2771.989226500009,None,2777.989441400001,None,"[0.399, -0.003]","[-0.2, 0.346]","[-0.203, -0.347]","[0.306, 0.255]","[-0.377, 0.138]","[0.066, -0.395]","[0.07, 0.393]","[-0.378, -0.136]","[0.304, -0.26]",,9.865259879996302,19.931803580009728,17.832243580007344,"[0.4287037037037037, -0.3861111111111111, 0.35648148148148145]","[-0.004629629629629629, -0.0962962962962963, 0.26666666666666666]","[1, 1, 1]","[0, 0, 0]","[0, 0, 0]","[9.864695600001141, 17.831102900003316, 19.930967399996007]",0.00013178000517655164,19.93093437999778,['A1'],['B1'],['C2'],['yellow'],['salmon'],['blue'],2799.5884266000066,None,3.0,2.263766100004432,2799.5884266000066,None,2817.2382652000088,None,2.0,3.598414000007324,2801.9218188000086,None,2.0,7.96438410000701,2809.905003100008,None,6.0,7.264522900004522,<function functionImportanceC at 0x000002A3028341E0>,<function functionImportanceA at 0x000002A30290CD08>,<function functionImportanceB at 0x000002A302834268>,,,1.0,3.531124599991017,7.0,7.264522900004522,8.0,2.464388100008364,<function functiondiffB at 0x000002A302834400>,<function functiondiffC at 0x000002A3028348C8>,<function functiondiffA at 0x000002A30290CB70>,,,,,2779.172447200006,2820.7881965999986,None,2824.3213898999966,None,2826.8046207000007,None,29,001,2022_Jul_21_1016,2leo,2021.2.3,59.986563008828796,
3,16,Plan a delicious cake for the birthday of a friend,Stimuli/16A1.jpg,Stimuli/16A2.jpg,Stimuli/16A3.jpg,Stimuli/16B1.jpg,Stimuli/16B2.jpg,Stimuli/16B3.jpg,Stimuli/16C1.jpg,Stimuli/16C2.jpg,Stimuli/16C3.jpg,,,,,0,41,41,16,,,,,,,,2828.7909833000012,None,2829.8043376999995,None,2835.8046355999977,None,"[0.306, 0.255]","[-0.377, 0.138]","[0.066, -0.395]","[0.399, -0.003]","[-0.2, 0.346]","[-0.203, -0.347]","[0.07, 0.393]","[-0.378, -0.136]","[0.304, -0.26]",,4.891196180004044,8.19161238000379,14.524888379994081,"[-0.30462962962962964, 0.3814814814814815, 0.3472222222222222]","[0.07777777777777778, 0.005555555555555556, -0.19814814814814816]","[1, 1, 1]","[0, 0, 0]","[0, 0, 0]","[4.884741499990923, 8.184994800001732, 14.517852999997558]",0.005929179998929612,14.523674280004343,['A2'],['B1'],['C3'],['yellow'],['blue'],['salmon'],2852.2371365,None,7.0,3.163826300005894,2852.2371365,None,2859.103825900005,None,7.0,5.998373900001752,2855.5371181000082,None,2.0,3.3977881999890087,2864.8870147999987,None,9.0,2.432143599988194,<function functionImportanceC at 0x000002A3028342F0>,<function functionImportanceB at 0x000002A302834840>,<function functionImportanceA at 0x000002A302834AE8>,,,3.0,2.781490599998506,6.0,2.432143599988194,1.0,1.8983236999920337,<function functiondiffB at 0x000002A302115268>,<function functiondiffA at 0x000002A302834048>,<function functiondiffC at 0x000002A30290CE18>,,,,,2837.2349474000075,2867.3702416000015,None,2872.053490200007,None,2870.120349500008,None,29,001,2022_Jul_21_1016,2leo,2021.2.3,59.986563008828796,
3,43,Plan your dream house,Stimuli/43A1.jpg,Stimuli/43A2.jpg,Stimuli/43A3.jpg,Stimuli/43B1.jpg,Stimuli/43B2.jpg,Stimuli/43B3.jpg,Stimuli/43C1.jpg,Stimuli/43C2.jpg,Stimuli/43C3.jpg,,,,,0,42,42,43,,,,,,,,2874.623340200007,None,2875.6366047000047,None,2881.6365546000015,None,"[0.306, 0.255]","[-0.377, 0.138]","[0.066, -0.395]","[0.07, 0.393]","[-0.378, -0.136]","[0.304, -0.26]","[0.399, -0.003]","[-0.2, 0.346]","[-0.203, -0.347]",,19.896536600004765,16.36359170000651,9.380853200011188,"[0.3472222222222222, -0.32407407407407407, 0.29259259259259257]","[0.0, -0.08888888888888889, 0.2037037037037037]","[1, 1, 1]","[0, 0, 0]","[0, 0, 0]","[9.372378500003833, 16.35526729999401, 19.888565599991125]",0.0075348000100348145,19.8959928000113,['A1'],['B2'],['C1'],['yellow'],['blue'],['salmon'],2903.1692671000055,None,10.0,2.3137541000032797,2903.1692671000055,None,2908.5192415000056,None,7.0,2.7817794000002323,2905.535803599996,None,10.0,2.947799400004442,2911.335649600005,None,6.0,5.498355400006403,<function functionImportanceC at 0x000002A302834C80>,<function functionImportanceB at 0x000002A302834A60>,<function functionImportanceA at 0x000002A302834B70>,,,4.0,3.397884800011525,1.0,5.498355400006403,5.0,3.3997216999996454,<function functiondiffA at 0x000002A302834D90>,<function functiondiffC at 0x000002A30290C1E0>,<function functiondiffB at 0x000002A302834D08>,,,,,2882.795145199998,2924.335455499997,None,2920.2187994999986,None,2916.802428199997,None,29,001,2022_Jul_21_1016,2leo,2021.2.3,59.986563008828796,
3,26,Plan how to wash one round of your laundry ,Stimuli/26A1.jpg,Stimuli/26A2.jpg,Stimuli/26A3.jpg,Stimuli/26B1.jpg,Stimuli/26B2.jpg,Stimuli/26B3.jpg,Stimuli/26C1.jpg,Stimuli/26C2.jpg,Stimuli/26C3.jpg,,,,,0,43,43,26,,,,,,,,2927.2580868000077,None,2928.268563699996,None,2934.268660200003,None,"[0.306, 0.255]","[-0.377, 0.138]","[0.066, -0.395]","[0.07, 0.393]","[-0.378, -0.136]","[0.304, -0.26]","[0.399, -0.003]","[-0.2, 0.346]","[-0.203, -0.347]",,4.682900240004528,9.250094740011264,12.933017840012326,"[0.05648148148148148, 0.2833333333333333, 0.39166666666666666]","[-0.3111111111111111, -0.23703703703703705, -0.07592592592592592]","[1, 1, 1]","[0, 0, 0]","[0, 0, 0]","[4.681944199997815, 9.248877200006973, 12.931739799998468]",0.00036764000833500177,12.932144540012814,['A3'],['B3'],['C1'],['blue'],['yellow'],['salmon'],2948.817925299998,None,10.0,2.0139923999959137,2948.817925299998,None,2959.117668100007,None,6.0,5.181592799999635,2950.8847169000073,None,3.0,5.5643409000040265,2956.4678482000018,None,10.0,2.6316968000028282,<function functionImportanceC at 0x000002A30290C378>,<function functionImportanceA at 0x000002A3028349D8>,<function functionImportanceB at 0x000002A30290C268>,,,0.0,3.1309755999973277,0.0,2.6316968000028282,-0.0,2.4297383000084665,<function functiondiffB at 0x000002A3028340D0>,<function functiondiffC at 0x000002A302834510>,<function functiondiffA at 0x000002A302834F28>,,,,,2935.4006575999956,2964.3010796000017,None,2967.4509751000005,None,2969.4342087999976,None,29,001,2022_Jul_21_1016,2leo,2021.2.3,59.986563008828796,
3,25,Plan how you want to read a book in your free time ,Stimuli/25A1.jpg,Stimuli/25A2.jpg,Stimuli/25A3.jpg,Stimuli/25B1.jpg,Stimuli/25B2.jpg,Stimuli/25B3.jpg,Stimuli/25C1.jpg,Stimuli/25C2.jpg,Stimuli/25C3.jpg,,,,,0,44,44,25,,,,,,,,2971.388016900004,None,2972.4007635000016,None,2978.400892599995,None,"[-0.378, -0.136]","[0.304, -0.26]","[0.07, 0.393]","[-0.377, 0.138]","[0.066, -0.395]","[0.306, 0.255]","[-0.2, 0.346]","[-0.203, -0.347]","[0.399, -0.003]",,9.773311219993047,14.506019019987434,21.972591319994535,"[0.2611111111111111, 0.0712962962962963, -0.19814814814814816]","[-0.21388888888888888, -0.32592592592592595, -0.3277777777777778]","[1, 1, 1]","[0, 0, 0]","[0, 0, 0]","[9.759340200005681, 14.491817500005709, 21.957967900001677]",0.013436719993478619,21.971278519995394,['A2'],['B2'],['C2'],['blue'],['yellow'],['salmon'],3002.316632000002,None,9.0,2.3635958999948343,3002.316632000002,None,3014.1332064000017,None,10.0,2.1484321000025375,3005.0505300000077,None,10.0,4.197866500006057,3008.967165000009,None,3.0,5.115013500006171,<function functionImportanceC at 0x000002A302F566A8>,<function functionImportanceA at 0x000002A30290CC80>,<function functionImportanceB at 0x000002A302F56598>,,,0.0,2.398028700001305,1.0,5.115013500006171,3.0,3.9808785999921383,<function functiondiffA at 0x000002A3028347B8>,<function functiondiffB at 0x000002A302834598>,<function functiondiffC at 0x000002A30290CEA0>,,,,,2979.8862134000083,3020.2497337000095,None,3022.7163398999983,None,3016.2331302999955,None,29,001,2022_Jul_21_1016,2leo,2021.2.3,59.986563008828796,
