Condition,N_Scenario,written_scenario,ImageA1,ImageA2,ImageA3,ImageB1,ImageB2,ImageB3,ImageC1,ImageC2,ImageC3,trials_2.thisRepN,trials_2.thisTrialN,trials_2.thisN,trials_2.thisIndex,trial.thisRepN,trial.thisTrialN,trial.thisN,trial.thisIndex,button_2.started,button_2.stopped,button_2.numClicks,button_2.timesOn,button_2.timesOff,text.started,text.stopped,fixationcross1_started,fixationcross1_stopped,Scenario_started,Scenario_stopped,fixationcross2_started,fixationcross2_stopped,A1pos,A2pos,A3pos,B1pos,B2pos,B3pos,C1pos,C2pos,C3pos,﻿Imagesdecision_started,decisiontimeA,decisiontimeB,decisiontimeC,mouse_x,mouse_y,mouse_leftButton,mouse_midButton,mouse_rightButton,mouse_time,mouse_started,mouse_stopped,clicked_optionA,clicked_optionB,clicked_optionC,colour_category_A,colour_category_B,colour_category_C,question_confidence_started,question_confidence_stopped,slider_confidence_response,slider_confidence_rt,slider_confidence_started,slider_confidence_stopped,question_valueA_started,question_valueA_stopped,slider_valueA_response,slider_valueA_rt,question_valueC_started,question_valueC_stopped,slider_valueC_response,slider_valueC_rt,question_valueB_started,question_valueB_stopped,slider_valueB_response,slider_valueB_rt,Importance_First,Importance_Second,Importance_Third,question_diff_started,question_diff_stopped,slider_diffB_response,slider_diffB_rt,slider_diffA_response,slider_diffA_rt,slider_diffC_response,slider_diffC_rt,diff_First,diff_Second,diff_Third,button_3_started,button_3_stopped,text_2_started,text_2_stopped,Imagesdecision_started,question_diffA_started,question_diffA_stopped,question_diffC_started,question_diffC_stopped,question_diffB_started,question_diffB_stopped,participant,session,date,expName,psychopyVersion,frameRate,
3,2,Plan a party to celebrate your birthday,Stimuli/2A1t.jpg,Stimuli/2A2t.jpg,Stimuli/2A3t.jpg,Stimuli/2B1t.jpg,Stimuli/2B2t.jpg,Stimuli/2B3t.jpg,Stimuli/2C1t.jpg,Stimuli/2C2t.jpg,Stimuli/2C3t.jpg,0,0,0,0,,,,,24.117891199999576,None,1,[4.535345399999642],[4.535348800000065],24.117891199999576,None,72.96033549999993,None,73.96983129999717,None,79.97006239999973,None,"[0.07, 0.393]","[-0.378, -0.136]","[0.304, -0.26]","[0.399, -0.003]","[-0.2, 0.346]","[-0.203, -0.347]","[0.306, 0.255]","[-0.377, 0.138]","[0.066, -0.395]",83.95374809999703,13.441721150007652,8.059047350008768,4.342525250009203,"[-0.30648148148148147, 0.45185185185185184, 0.0787037037037037]","[0.13425925925925927, 0.03425925925925926, 0.34074074074074073]","[1, 1, 1]","[0, 0, 0]","[0, 0, 0]","[4.3307414000009885, 8.063861499998893, 13.430529000001115]",0.010796950009535067,13.441007450008328,['A1'],['B1'],['C2'],['salmon'],['yellow'],['blue'],97.85243789999731,None,9.0,4.479985499998293,97.85243789999731,None,103.68598319999728,None,10.0,8.814188799999101,111.25236310000037,None,3.0,6.081474300000991,118.87010919999739,None,4.0,5.198489899998094,<function functionImportanceAt at 0x000001491F2E4D08>,<function functionImportanceCt at 0x000001492C431F28>,<function functionImportanceBt at 0x000001492C431E18>,131.601748699999,None,3.0,3.863992899998266,3.0,8.814188799999101,1.0,2.614873300000909,<function functiondiffBt at 0x000001492C8A1C80>,<function functiondiffAt at 0x000001492C8A1840>,<function functiondiffCt at 0x000001492C8A1D90>,,,,,,,,,,,,005,001,2022_Jun_13_1643,2leo,2021.2.3,60.00294014331605,
3,3,Plan one week of vacation,Stimuli/3A1t.jpg,Stimuli/3A2t.jpg,Stimuli/3A3t.jpg,Stimuli/3B1t.jpg,Stimuli/3B2t.jpg,Stimuli/3B3t.jpg,Stimuli/3C1t.jpg,Stimuli/3C2t.jpg,Stimuli/3C3t.jpg,0,1,1,1,,,,,,,,,,,,133.7351869999984,None,134.73525909999807,None,140.73501620000025,None,"[-0.203, -0.347]","[0.399, -0.003]","[-0.2, 0.346]","[0.304, -0.26]","[0.07, 0.393]","[-0.378, -0.136]","[0.066, -0.395]","[0.306, 0.255]","[-0.377, 0.138]",146.81288609999683,6.2252497500121535,11.575281450011971,22.94179165000969,"[-0.19074074074074074, 0.3398148148148148, 0.06111111111111111]","[-0.37592592592592594, -0.2611111111111111, -0.3787037037037037]","[1, 1, 1]","[0, 0, 0]","[0, 0, 0]","[6.220246699998825, 11.569984099998692, 22.936240399998496]",0.004569650012854254,22.94076045001202,['A1'],['B1'],['C1'],['salmon'],['yellow'],['blue'],170.21742019999874,None,6.0,4.348066700000345,170.21742019999874,None,190.00034219999725,None,6.0,4.798527099999774,176.07063619999826,None,8.0,6.280907899999875,182.6677877999973,None,7.0,7.148227099998621,<function functionImportanceCt at 0x000001491C1500D0>,<function functionImportanceBt at 0x000001492C4318C8>,<function functionImportanceAt at 0x000001492C431AE8>,201.50397109999903,None,1.0,3.931034000001091,7.0,4.798527099999774,9.0,6.964312600000994,<function functiondiffBt at 0x000001492C8A1268>,<function functiondiffAt at 0x000001492C8A1048>,<function functiondiffCt at 0x000001492C8A10D0>,,,,,,,,,,,,005,001,2022_Jun_13_1643,2leo,2021.2.3,60.00294014331605,
3,0,Plan a barbecue,Stimuli/0A1.jpg,Stimuli/0A2.jpg,Stimuli/0A3.jpg,Stimuli/0B1.jpg,Stimuli/0B2.jpg,Stimuli/0B3.jpg,Stimuli/0C1.jpg,Stimuli/0C2.jpg,Stimuli/0C3.jpg,,,,,0,0,0,0,,,,,,,,268.17545939999764,None,269.16501239999707,None,275.1648807999991,None,"[0.306, 0.255]","[-0.377, 0.138]","[0.066, -0.395]","[0.07, 0.393]","[-0.378, -0.136]","[0.304, -0.26]","[0.399, -0.003]","[-0.2, 0.346]","[-0.203, -0.347]",,10.29301465000026,9.043291649999446,16.459992849999253,"[-0.31574074074074077, -0.32407407407407407, -0.32407407407407407, -0.175]","[-0.1824074074074074, 0.14722222222222223, 0.14722222222222223, 0.32592592592592595]","[1, 1, 1, 1]","[0, 0, 0, 0]","[0, 0, 0, 0]","[9.030037600001378, 10.280046100000618, 10.496807800001989, 16.446508600001835]",0.012459749999834457,16.458905250001408,['A2'],['B2'],['C2'],['yellow'],['blue'],['salmon'],294.61396759999843,None,10.0,3.0132176999977673,294.61396759999843,None,306.9472745999992,None,10.0,2.998493099999905,301.43064559999766,None,7.0,4.098171400000865,297.7308778999977,None,4.0,3.696912200000952,<function functionImportanceB at 0x000001492C5678C8>,<function functionImportanceC at 0x000001492C603E18>,<function functionImportanceA at 0x000001492BC44E18>,,,7.0,5.480994899997313,-0.0,3.747968799998489,3.0,2.998493099999905,<function functiondiffA at 0x000001492C8A1158>,<function functiondiffC at 0x000001492C8A1620>,<function functiondiffB at 0x000001492C8A1400>,207.56649560000005,None,207.56649560000005,None,277.7006619999993,308.91387309999845,None,312.28052469999966,None,317.7636265999972,None,005,001,2022_Jun_13_1643,2leo,2021.2.3,60.00294014331605,
3,14,Plan your own Pizza for dinner,Stimuli/14A1.jpg,Stimuli/14A2.jpg,Stimuli/14A3.jpg,Stimuli/14B1.jpg,Stimuli/14B2.jpg,Stimuli/14B3.jpg,Stimuli/14C1.jpg,Stimuli/14C2.jpg,Stimuli/14C3.jpg,,,,,0,1,1,14,,,,,,,,322.7633823999968,None,323.76345690000016,None,329.7635345999988,None,"[0.399, -0.003]","[-0.2, 0.346]","[-0.203, -0.347]","[0.306, 0.255]","[-0.377, 0.138]","[0.066, -0.395]","[0.07, 0.393]","[-0.378, -0.136]","[0.304, -0.26]",,10.75675940000292,17.823700500000996,4.890676600003644,"[0.075, 0.40370370370370373, 0.27314814814814814]","[0.42685185185185187, 0.005555555555555556, 0.1935185185185185]","[1, 1, 1]","[0, 0, 0]","[0, 0, 0]","[4.885469799999555, 10.752054000000498, 17.818728499998542]",0.004275900002539856,17.822693100002652,['A1'],['B1'],['C1'],['blue'],['salmon'],['yellow'],349.22934779999923,None,10.0,2.013422799998807,349.22934779999923,None,351.34618259999843,None,8.0,7.264487300002656,361.02921570000035,None,9.0,2.998613800002204,358.6459632999977,None,9.0,2.4316809000010835,<function functionImportanceA at 0x000001492C8A1AE8>,<function functionImportanceB at 0x000001492C8A1F28>,<function functionImportanceC at 0x000001492C8D7A60>,,,3.0,4.31434789999912,7.0,3.0486593000023277,0.0,7.264487300002656,<function functiondiffB at 0x000001492C8A12F0>,<function functiondiffC at 0x000001492C8D7730>,<function functiondiffA at 0x000001492C8A18C8>,,,,,330.92589699999735,371.42880709999736,None,368.36235789999773,None,364.0455987999994,None,005,001,2022_Jun_13_1643,2leo,2021.2.3,60.00294014331605,
3,38,Plan how you want to go for a run,Stimuli/38A1.jpg,Stimuli/38A2.jpg,Stimuli/38A3.jpg,Stimuli/38B1.jpg,Stimuli/38B2.jpg,Stimuli/38B3.jpg,Stimuli/38C1.jpg,Stimuli/38C2.jpg,Stimuli/38C3.jpg,,,,,0,2,2,38,,,,,,,,373.9953829999977,None,374.9951043999972,None,380.99531899999783,None,"[-0.203, -0.347]","[-0.2, 0.346]","[0.399, -0.003]","[0.304, -0.26]","[-0.378, -0.136]","[0.07, 0.393]","[0.066, -0.395]","[-0.377, 0.138]","[0.306, 0.255]",,6.663269049997325,11.596980449998227,15.497099549997074,"[-0.1962962962962963, -0.35648148148148145, -0.3888888888888889]","[0.29814814814814816, -0.06944444444444445, 0.10648148148148148]","[1, 1, 1]","[0, 0, 0]","[0, 0, 0]","[6.6467327999998815, 11.580193400001008, 15.480022899999312]",0.01603314999738359,15.496003549997113,['A2'],['B2'],['C2'],['yellow'],['blue'],['salmon'],398.1613013999995,None,9.0,2.43016279999938,398.1613013999995,None,400.6614198999996,None,10.0,2.733261200002744,403.4948633999993,None,9.0,2.331399300001067,405.76147889999993,None,4.0,3.5147531000002346,<function functionImportanceA at 0x000001492C8D7378>,<function functionImportanceC at 0x000001492C8D7840>,<function functionImportanceB at 0x000001492C8D7EA0>,,,2.0,2.797623599999497,0.0,2.847927900002105,8.0,2.733261200002744,<function functiondiffB at 0x000001492C8D7950>,<function functiondiffA at 0x000001492C8D7158>,<function functiondiffC at 0x000001492C8A17B8>,,,,,382.1972982999978,412.0777909999997,None,414.96121149999817,None,409.2613996999971,None,005,001,2022_Jun_13_1643,2leo,2021.2.3,60.00294014331605,
3,21,Plan your sandwich for lunch,Stimuli/21A1.jpg,Stimuli/21A2.jpg,Stimuli/21A3.jpg,Stimuli/21B1.jpg,Stimuli/21B2.jpg,Stimuli/21B3.jpg,Stimuli/21C1.jpg,Stimuli/21C2.jpg,Stimuli/21C3.jpg,,,,,0,3,3,21,,,,,,,,416.4943901999977,None,417.494460599999,None,423.49417919999905,None,"[0.306, 0.255]","[-0.377, 0.138]","[0.066, -0.395]","[0.07, 0.393]","[-0.378, -0.136]","[0.304, -0.26]","[0.399, -0.003]","[-0.2, 0.346]","[-0.203, -0.347]",,4.757173000001785,14.808054000000993,8.474268000001757,"[0.07407407407407407, -0.1388888888888889, 0.2462962962962963]","[-0.33240740740740743, 0.29814814814814816, -0.2518518518518518]","[1, 1, 1]","[0, 0, 0]","[0, 0, 0]","[4.744228600000497, 8.460847500002274, 14.794859500001621]",0.012343999998847721,14.805810499998188,['A3'],['B3'],['C2'],['salmon'],['yellow'],['blue'],439.8935483999994,None,10.0,2.3292509999992035,439.8935483999994,None,447.64353629999823,None,5.0,1.6817393000019365,445.5268077999972,None,9.0,2.0981709999978193,442.2770739999978,None,8.0,3.213805700001103,<function functionImportanceB at 0x000001492C8D72F0>,<function functionImportanceC at 0x000001492C8D79D8>,<function functionImportanceA at 0x000001492C8D7D08>,,,2.0,2.2811344000001554,7.0,3.864547200002562,7.0,1.6817393000019365,<function functiondiffA at 0x000001492C8D7620>,<function functiondiffC at 0x000001492C8D7F28>,<function functiondiffB at 0x000001492C8D7488>,,,,,424.61472389999835,449.2936223999968,None,453.1933742000001,None,456.1098631999994,None,005,001,2022_Jun_13_1643,2leo,2021.2.3,60.00294014331605,
3,27,Plan what festival to visit with your friends,Stimuli/27A1.jpg,Stimuli/27A2.jpg,Stimuli/27A3.jpg,Stimuli/27B1.jpg,Stimuli/27B2.jpg,Stimuli/27B3.jpg,Stimuli/27C1.jpg,Stimuli/27C2.jpg,Stimuli/27C3.jpg,,,,,0,4,4,27,,,,,,,,457.9098610000001,None,458.90983179999967,None,464.909752399999,None,"[0.07, 0.393]","[0.304, -0.26]","[-0.378, -0.136]","[0.306, 0.255]","[0.066, -0.395]","[-0.377, 0.138]","[0.399, -0.003]","[-0.203, -0.347]","[-0.2, 0.346]",,20.482234549999703,14.199738650000654,9.93339664999803,"[0.40370370370370373, 0.07685185185185185, 0.06111111111111111]","[0.041666666666666664, -0.35185185185185186, 0.42592592592592593]","[1, 1, 1]","[0, 0, 0]","[0, 0, 0]","[9.923947100000078, 14.190476299998409, 20.473326199997246]",0.008487150000291876,20.481682949997776,['A1'],['B2'],['C1'],['salmon'],['yellow'],['blue'],486.97558509999726,None,10.0,1.4302863000011712,486.97558509999726,None,492.12556649999897,None,10.0,2.015083499998582,488.47592099999747,None,8.0,3.6483012000026065,494.1589888999988,None,6.0,2.1651835999982723,<function functionImportanceC at 0x00000149002221E0>,<function functionImportanceA at 0x000001492C8A11E0>,<function functionImportanceB at 0x000001492C8D7400>,,,6.0,4.280400100000406,2.0,3.1643882999997004,3.0,2.015083499998582,<function functiondiffA at 0x000001492C8D7AE8>,<function functiondiffB at 0x000001492C8A1D08>,<function functiondiffC at 0x0000014900222A60>,,,,,466.01796079999986,496.3256924999987,None,503.8085175999986,None,499.50894379999954,None,005,001,2022_Jun_13_1643,2leo,2021.2.3,60.00294014331605,
3,28,Plan a one-week camping trip in Spain,Stimuli/28A1.jpg,Stimuli/28A2.jpg,Stimuli/28A3.jpg,Stimuli/28B1.jpg,Stimuli/28B2.jpg,Stimuli/28B3.jpg,Stimuli/28C1.jpg,Stimuli/28C2.jpg,Stimuli/28C3.jpg,,,,,0,5,5,28,,,,,,,,506.30866669999887,None,507.30862259999776,None,513.3083434999971,None,"[-0.203, -0.347]","[0.399, -0.003]","[-0.2, 0.346]","[0.066, -0.395]","[0.306, 0.255]","[-0.377, 0.138]","[0.304, -0.26]","[0.07, 0.393]","[-0.378, -0.136]",,26.134330250002677,15.951499550003064,31.451919350001845,"[0.06018518518518518, 0.34444444444444444]","[-0.34444444444444444, -0.07777777777777778]","[1, 1]","[0, 0]","[0, 0]","[15.949426199997106, 26.13249349999751]",0.0013279500017233659,31.450222550003673,['A2'],['B1'],['C1'],['salmon'],['yellow'],['blue'],546.357406799998,None,4.0,1.6131588999996893,546.357406799998,None,548.0409198999987,None,8.0,3.4645203000000038,554.6741715999997,None,2.0,2.2316418000009435,551.5074882999979,None,7.0,3.1483699000018532,<function functionImportanceA at 0x00000149002228C8>,<function functionImportanceB at 0x00000149002229D8>,<function functionImportanceC at 0x00000149002222F0>,,,8.0,2.1314980999995896,10.0,2.5146132000008947,7.0,3.4645203000000038,<function functiondiffC at 0x00000149002227B8>,<function functiondiffB at 0x000001492C8D7B70>,<function functiondiffA at 0x000001492C8D7510>,,,,,514.4229474999993,563.2406626999982,None,556.9073928999969,None,561.0906111999975,None,005,001,2022_Jun_13_1643,2leo,2021.2.3,60.00294014331605,
3,31,Plan your order at a restaurant    ,Stimuli/31A1.jpg,Stimuli/31A2.jpg,Stimuli/31A3.jpg,Stimuli/31B1.jpg,Stimuli/31B2.jpg,Stimuli/31B3.jpg,Stimuli/31C1.jpg,Stimuli/31C2.jpg,Stimuli/31C3.jpg,,,,,0,6,6,31,,,,,,,,565.2736536999982,None,566.273725199997,None,572.2736152999969,None,"[-0.2, 0.346]","[0.399, -0.003]","[-0.203, -0.347]","[-0.378, -0.136]","[0.07, 0.393]","[0.304, -0.26]","[-0.377, 0.138]","[0.306, 0.255]","[0.066, -0.395]",,17.366335600007005,9.868098500006454,24.517124500005593,"[0.30185185185185187, -0.19814814814814816, 0.25555555555555554]","[-0.2222222222222222, 0.27685185185185185, 0.21296296296296297]","[1, 1, 1]","[0, 0, 0]","[0, 0, 0]","[9.866460899997037, 17.34989129999667, 24.50008429999798]",0.016042500006733462,24.51543510000556,['A1'],['B3'],['C2'],['yellow'],['salmon'],['blue'],599.8227665999984,None,9.0,2.546820799998386,599.8227665999984,None,607.7560400999973,None,1.0,3.3980405000002065,602.4727596999983,None,10.0,3.864237300000241,609.7559392999974,None,8.0,2.5482345999989775,<function functionImportanceC at 0x0000014900222B70>,<function functionImportanceA at 0x0000014900222C80>,<function functionImportanceB at 0x0000014900222730>,,,2.0,2.9645144999994955,8.0,3.680862099998194,3.0,3.3980405000002065,<function functiondiffA at 0x000001492C8A19D8>,<function functiondiffC at 0x0000014900222D90>,<function functiondiffB at 0x000001492C8A1950>,,,,,574.8561365999994,612.6226511999994,None,615.9724597999993,None,619.6389008999977,None,005,001,2022_Jun_13_1643,2leo,2021.2.3,60.00294014331605,
3,32,Plan how you want to relax after a workday,Stimuli/32A1.jpg,Stimuli/32A2.jpg,Stimuli/32A3.jpg,Stimuli/32B1.jpg,Stimuli/32B2.jpg,Stimuli/32B3.jpg,Stimuli/32C1.jpg,Stimuli/32C2.jpg,Stimuli/32C3.jpg,,,,,0,7,7,32,,,,,,,,622.1221746999981,None,623.1222648999974,None,629.1220786999984,None,"[0.07, 0.393]","[0.304, -0.26]","[-0.378, -0.136]","[0.306, 0.255]","[0.066, -0.395]","[-0.377, 0.138]","[0.399, -0.003]","[-0.203, -0.347]","[-0.2, 0.346]",,17.663426650004112,13.163852050005517,7.164422950005246,"[-0.11666666666666667, 0.28703703703703703, 0.28425925925925927]","[-0.2972222222222222, 0.2537037037037037, -0.23055555555555557]","[1, 1, 1]","[0, 0, 0]","[0, 0, 0]","[7.163325100002112, 13.163007300001482, 17.662869700001465]",6.54500036034733e-05,17.662773150004796,['A2'],['B1'],['C2'],['blue'],['salmon'],['yellow'],650.271335399997,None,10.0,2.3136253000011493,650.271335399997,None,667.1217927999969,None,6.0,4.164859000000433,652.6548316999979,None,10.0,2.3646254999985103,655.8380510999996,None,8.0,10.914787999998225,<function functionImportanceC at 0x0000014900222400>,<function functionImportanceB at 0x0000014900222840>,<function functionImportanceA at 0x0000014900222620>,,,0.0,8.530739399997401,2.0,3.714282099997945,0.0,4.164859000000433,<function functiondiffC at 0x000001492C8D7E18>,<function functiondiffA at 0x000001492C431B70>,<function functiondiffB at 0x0000014900222950>,,,,,632.140925599997,673.5056452999997,None,670.1212817999985,None,677.0541211999989,None,005,001,2022_Jun_13_1643,2leo,2021.2.3,60.00294014331605,
3,33,Plan the items to decorate your Christmas tree,Stimuli/33A1.jpg,Stimuli/33A2.jpg,Stimuli/33A3.jpg,Stimuli/33B1.jpg,Stimuli/33B2.jpg,Stimuli/33B3.jpg,Stimuli/33C1.jpg,Stimuli/33C2.jpg,Stimuli/33C3.jpg,,,,,0,8,8,33,,,,,,,,684.9206919999997,None,685.9205521000004,None,691.9206505000002,None,"[0.066, -0.395]","[0.306, 0.255]","[-0.377, 0.138]","[0.304, -0.26]","[0.07, 0.393]","[-0.378, -0.136]","[-0.203, -0.347]","[0.399, -0.003]","[-0.2, 0.346]",,6.769321049996506,18.736131849997037,12.553089349996299,"[0.2601851851851852, -0.13425925925925927, -0.35648148148148145]","[0.2574074074074074, 0.32407407407407407, -0.1712962962962963]","[1, 1, 1]","[0, 0, 0]","[0, 0, 0]","[6.7641096000006655, 12.547140800001216, 18.730395300000964]",0.004699349996371893,18.735000549997494,['A2'],['B3'],['C3'],['salmon'],['yellow'],['blue'],712.8197194999993,None,8.0,2.1973447000018496,712.8197194999993,None,715.669747099997,None,8.0,3.529925099999673,718.6531990999974,None,8.0,2.4815048999989813,721.1363867,None,2.0,1.6483843000023626,<function functionImportanceA at 0x000001492C8D7C80>,<function functionImportanceC at 0x0000014900222EA0>,<function functionImportanceB at 0x000001492C2F4D90>,,,3.0,3.8640057999982673,6.0,2.964648199998919,2.0,3.529925099999673,<function functiondiffB at 0x00000149002226A8>,<function functiondiffA at 0x0000014900222488>,<function functiondiffC at 0x0000014900222598>,,,,,693.6180243999988,726.7863190999997,None,729.6361166999995,None,722.7696665999974,None,005,001,2022_Jun_13_1643,2leo,2021.2.3,60.00294014331605,
3,39,Plan what kind of watch you want to buy,Stimuli/39A1.jpg,Stimuli/39A2.jpg,Stimuli/39A3.jpg,Stimuli/39B1.jpg,Stimuli/39B2.jpg,Stimuli/39B3.jpg,Stimuli/39C1.jpg,Stimuli/39C2.jpg,Stimuli/39C3.jpg,,,,,0,9,9,39,,,,,,,,732.7194380000001,None,733.7193861999986,None,739.7192806999992,None,"[-0.377, 0.138]","[0.306, 0.255]","[0.066, -0.395]","[-0.2, 0.346]","[0.399, -0.003]","[-0.203, -0.347]","[-0.378, -0.136]","[0.07, 0.393]","[0.304, -0.26]",,17.42816810000295,14.47835010000199,20.245159400001285,"[-0.1287037037037037, 0.28703703703703703, 0.030555555555555555]","[0.31574074074074077, 0.25925925925925924, 0.33055555555555555]","[1, 1, 1]","[0, 0, 0]","[0, 0, 0]","[14.462749300000723, 17.412742900000012, 20.229195200001413]",0.014908400000422262,20.243984400000045,['A2'],['B1'],['C2'],['salmon'],['yellow'],['blue'],761.5849262999982,None,8.0,1.8302116000013484,761.5849262999982,None,763.4852954999988,None,8.0,2.614922299999307,767.9350750999984,None,2.0,2.314459100001841,766.1017334999997,None,10.0,1.7650055000012799,<function functionImportanceA at 0x000001492C8D7BF8>,<function functionImportanceB at 0x000001492C8D76A8>,<function functionImportanceC at 0x000001492C8D77B8>,,,-0.0,2.7477698999973654,9.0,1.815465600000607,3.0,2.614922299999307,<function functiondiffB at 0x0000014900222268>,<function functiondiffC at 0x0000014900670378>,<function functiondiffA at 0x0000014900222E18>,,,,,740.8705432999996,777.0683341999975,None,772.9684806999976,None,770.2017079999969,None,005,001,2022_Jun_13_1643,2leo,2021.2.3,60.00294014331605,
3,6,Plan your wedding,Stimuli/6A1.jpg,Stimuli/6A2.jpg,Stimuli/6A3.jpg,Stimuli/6B1.jpg,Stimuli/6B2.jpg,Stimuli/6B3.jpg,Stimuli/6C1.jpg,Stimuli/6C2.jpg,Stimuli/6C3.jpg,,,,,0,10,10,6,,,,,,,,778.4015478000001,None,779.4015053999974,None,785.401414099997,None,"[0.399, -0.003]","[-0.2, 0.346]","[-0.203, -0.347]","[0.306, 0.255]","[-0.377, 0.138]","[0.066, -0.395]","[0.07, 0.393]","[-0.378, -0.136]","[0.304, -0.26]",,10.469075150005665,11.336177750006755,15.086507350006286,"[0.4444444444444444, 0.030555555555555555, 0.2212962962962963]","[0.03611111111111111, -0.4185185185185185, -0.18981481481481483]","[1, 1, 1]","[0, 0, 0]","[0, 0, 0]","[10.463502999999037, 11.330179399999906, 15.080223199998727]",0.00510335000581108,15.085163650008326,['A1'],['B3'],['C3'],['blue'],['salmon'],['yellow'],806.0838874000001,None,9.0,2.2315186000014364,806.0838874000001,None,825.7666608999971,None,10.0,4.281788100000995,816.353014999997,None,2.0,9.414832000002207,810.0340601999997,None,10.0,6.763495700000931,<function functionImportanceB at 0x0000014900670A60>,<function functionImportanceC at 0x0000014900670158>,<function functionImportanceA at 0x0000014900670950>,,,2.0,3.1809195000023465,2.0,5.297644999998738,1.0,4.281788100000995,<function functiondiffA at 0x0000014900222F28>,<function functiondiffB at 0x00000149002220D0>,<function functiondiffC at 0x0000014900222048>,,,,,790.5384903999984,829.166877599997,None,837.7833476999986,None,834.5998032999996,None,005,001,2022_Jun_13_1643,2leo,2021.2.3,60.00294014331605,
3,5,Plan a birthday party for your younger self when you turn eight,Stimuli/5A1.jpg,Stimuli/5A2.jpg,Stimuli/5A3.jpg,Stimuli/5B1.jpg,Stimuli/5B2.jpg,Stimuli/5B3.jpg,Stimuli/5C1.jpg,Stimuli/5C2.jpg,Stimuli/5C3.jpg,,,,,0,11,11,5,,,,,,,,840.216565499999,None,841.2164905999998,None,847.2165015999999,None,"[-0.378, -0.136]","[0.07, 0.393]","[0.304, -0.26]","[-0.377, 0.138]","[0.306, 0.255]","[0.066, -0.395]","[-0.2, 0.346]","[0.399, -0.003]","[-0.203, -0.347]",,17.02990500001033,12.829924400011805,21.947032800009765,"[-0.3277777777777778, 0.11203703703703703, -0.1259259259259259]","[0.14444444444444443, 0.3296296296296296, -0.26851851851851855]","[1, 1, 1]","[0, 0, 0]","[0, 0, 0]","[12.823367600001802, 17.023531099999673, 21.940000400001736]",0.005879900010768324,21.94559430001027,['A2'],['B1'],['C3'],['blue'],['yellow'],['salmon'],875.5155837999991,None,10.0,1.9461837999988347,875.5155837999991,None,890.7485689999994,None,6.0,7.665096799999446,878.2155523999973,None,10.0,7.2807536000000255,886.4150856999986,None,1.0,3.2650953000011214,<function functionImportanceC at 0x0000014900670BF8>,<function functionImportanceB at 0x00000149006700D0>,<function functionImportanceA at 0x00000149006707B8>,,,5.0,7.7643011000000115,4.0,4.8807606999980635,2.0,7.665096799999446,<function functiondiffB at 0x0000014900222158>,<function functiondiffC at 0x0000014900670268>,<function functiondiffA at 0x0000014900222D08>,,,,,853.1132903999969,908.1647675999993,None,903.6816569000002,None,896.0986037000002,None,005,001,2022_Jun_13_1643,2leo,2021.2.3,60.00294014331605,
3,35,Plan how you want to do your grocery shopping ,Stimuli/35A1.jpg,Stimuli/35A2.jpg,Stimuli/35A3.jpg,Stimuli/35B1.jpg,Stimuli/35B2.jpg,Stimuli/35B3.jpg,Stimuli/35C1.jpg,Stimuli/35C2.jpg,Stimuli/35C3.jpg,,,,,0,12,12,35,,,,,,,,911.7978285999998,None,912.7980081999995,None,918.7979603999993,None,"[0.306, 0.255]","[0.066, -0.395]","[-0.377, 0.138]","[0.399, -0.003]","[-0.203, -0.347]","[-0.2, 0.346]","[0.07, 0.393]","[0.304, -0.26]","[-0.378, -0.136]",,24.323640399998112,19.023923099997774,5.0081768999989436,"[0.21944444444444444, 0.42685185185185187, 0.3537037037037037]","[-0.2222222222222222, 0.0, 0.18055555555555555]","[1, 1, 1]","[0, 0, 0]","[0, 0, 0]","[4.9937148000026355, 19.00976190000074, 24.309798600002978]",0.013434799995593494,24.32305809999889,['A1'],['B1'],['C2'],['salmon'],['blue'],['yellow'],944.8470485999969,None,8.0,2.19730619999973,944.8470485999969,None,951.6970422999984,None,6.0,1.49840469999981,947.1305897999991,None,10.0,2.89784470000086,950.1471263999993,None,10.0,1.5651093000014953,<function functionImportanceC at 0x00000149006706A8>,<function functionImportanceB at 0x00000149006701E0>,<function functionImportanceA at 0x0000014900670048>,,,2.0,2.0309436000025016,9.0,3.21473960000003,3.0,1.49840469999981,<function functiondiffA at 0x0000014900670D90>,<function functiondiffB at 0x0000014900670400>,<function functiondiffC at 0x0000014900222BF8>,,,,,920.0546098999985,953.0970739000004,None,958.3804237000004,None,956.3468530999999,None,005,001,2022_Jun_13_1643,2leo,2021.2.3,60.00294014331605,
3,13,Plan a romantic date this weekend,Stimuli/13A1.jpg,Stimuli/13A2.jpg,Stimuli/13A3.jpg,Stimuli/13B1.jpg,Stimuli/13B2.jpg,Stimuli/13B3.jpg,Stimuli/13C1.jpg,Stimuli/13C2.jpg,Stimuli/13C3.jpg,,,,,0,13,13,13,,,,,,,,964.3797379999996,None,965.3797801999972,None,971.3798042999988,None,"[-0.2, 0.346]","[0.399, -0.003]","[-0.203, -0.347]","[-0.378, -0.136]","[0.07, 0.393]","[0.304, -0.26]","[-0.377, 0.138]","[0.306, 0.255]","[0.066, -0.395]",,10.059756099999504,33.17610480000076,18.293199300002016,"[0.475, -0.2972222222222222, 0.3055555555555556]","[0.03518518518518519, 0.09907407407407408, -0.1712962962962963]","[1, 1, 1]","[0, 0, 0]","[0, 0, 0]","[10.044966700002988, 18.278006900000037, 33.16107000000193]",0.014029400001163594,33.174979400002485,['A2'],['B3'],['C1'],['yellow'],['blue'],['salmon'],1006.2119272999989,None,6.0,2.846655900000769,1006.2119272999989,None,1011.5287682999988,None,3.0,2.9144740000010643,1009.1289311999972,None,9.0,2.364513299999089,1014.4953552999978,None,1.0,2.498354500003188,<function functionImportanceC at 0x0000014900670B70>,<function functionImportanceA at 0x0000014900670C80>,<function functionImportanceB at 0x0000014900670620>,,,6.0,3.147297100000287,0.0,3.7142581999978574,2.0,2.9144740000010643,<function functiondiffB at 0x000001492C431C80>,<function functiondiffC at 0x000001492C8D7048>,<function functiondiffA at 0x0000014900670730>,,,,,972.5665621999979,1022.7618538999996,None,1020.0949957999983,None,1016.9459719999977,None,005,001,2022_Jun_13_1643,2leo,2021.2.3,60.00294014331605,
3,29,Plan a day in the mountains ,Stimuli/29A1.jpg,Stimuli/29A2.jpg,Stimuli/29A3.jpg,Stimuli/29B1.jpg,Stimuli/29B2.jpg,Stimuli/29B3.jpg,Stimuli/29C1.jpg,Stimuli/29C2.jpg,Stimuli/29C3.jpg,,,,,0,14,14,29,,,,,,,,1025.9950368999998,None,1026.9949326999995,None,1032.9950069999977,None,"[0.306, 0.255]","[-0.377, 0.138]","[0.066, -0.395]","[0.07, 0.393]","[-0.378, -0.136]","[0.304, -0.26]","[0.399, -0.003]","[-0.2, 0.346]","[-0.203, -0.347]",,21.754939849997754,15.971939049999492,20.055247449996386,"[0.23796296296296296, 0.35833333333333334, -0.35185185185185186]","[-0.22407407407407406, -0.06388888888888888, 0.11203703703703703]","[1, 1, 1]","[0, 0, 0]","[0, 0, 0]","[15.959241000000475, 20.042497800001, 21.742634800000815]",0.01178644999890821,21.75418614999944,['A2'],['B3'],['C1'],['yellow'],['blue'],['salmon'],1056.3941701000003,None,7.0,2.1796572000021115,1056.3941701000003,None,1064.1940547999984,None,10.0,2.3149831000009726,1066.4773836999993,None,8.0,2.331763800000772,1058.627528099998,None,3.0,5.481299700000818,<function functionImportanceB at 0x0000014900670488>,<function functionImportanceA at 0x000001492C8D7D90>,<function functionImportanceC at 0x0000014900BEB510>,,,2.0,3.6644226999997045,0.0,7.931052799998724,2.0,2.3149831000009726,<function functiondiffC at 0x0000014900BEB1E0>,<function functiondiffB at 0x0000014900670AE8>,<function functiondiffA at 0x00000149006709D8>,,,,,1034.1659247999996,1075.610576799998,None,1068.7940262999982,None,1071.9104913999981,None,005,001,2022_Jun_13_1643,2leo,2021.2.3,60.00294014331605,
3,18,Plan your Saturday night ,Stimuli/18A1.jpg,Stimuli/18A2.jpg,Stimuli/18A3.jpg,Stimuli/18B1.jpg,Stimuli/18B2.jpg,Stimuli/18B3.jpg,Stimuli/18C1.jpg,Stimuli/18C2.jpg,Stimuli/18C3.jpg,,,,,0,15,15,18,,,,,,,,1127.4590936999994,None,1128.4591274999984,None,1134.459063299997,None,"[-0.378, -0.136]","[0.304, -0.26]","[0.07, 0.393]","[-0.377, 0.138]","[0.066, -0.395]","[0.306, 0.255]","[-0.2, 0.346]","[-0.203, -0.347]","[0.399, -0.003]",,9.828775699999824,3.4959204999977374,12.829153999999107,"[0.016666666666666666, 0.012037037037037037, -0.17222222222222222]","[-0.3296296296296296, 0.3527777777777778, -0.27685185185185185]","[1, 1, 1]","[0, 0, 0]","[0, 0, 0]","[3.4886081000004197, 9.821653200000583, 12.821581100000913]",0.006530999999085907,12.82796529999905,['A3'],['B2'],['C2'],['salmon'],['yellow'],['blue'],1148.8583037999997,None,10.0,1.863892900000792,1148.8583037999997,None,1153.2748418999981,None,9.0,3.1817451999995683,1156.474698799997,None,3.0,3.6152067000002717,1150.7582006999983,None,9.0,2.464509099998395,<function functionImportanceB at 0x0000014900BEB950>,<function functionImportanceA at 0x0000014900BEB840>,<function functionImportanceC at 0x0000014900BEB048>,,,0.0,2.7143918000001577,7.0,2.7648798000009265,1.0,3.1817451999995683,<function functiondiffB at 0x0000014900BEBE18>,<function functiondiffC at 0x0000014900BEBF28>,<function functiondiffA at 0x0000014900BEBAE8>,,,,,1135.5522623999968,1165.7412944999996,None,1162.8080446999993,None,1160.0581256999976,None,005,001,2022_Jun_13_1643,2leo,2021.2.3,60.00294014331605,
3,26,Plan how to wash one round of your laundry ,Stimuli/26A1.jpg,Stimuli/26A2.jpg,Stimuli/26A3.jpg,Stimuli/26B1.jpg,Stimuli/26B2.jpg,Stimuli/26B3.jpg,Stimuli/26C1.jpg,Stimuli/26C2.jpg,Stimuli/26C3.jpg,,,,,0,16,16,26,,,,,,,,1168.0244499999972,None,1169.0246028999973,None,1175.0246627999986,None,"[0.07, 0.393]","[0.304, -0.26]","[-0.378, -0.136]","[0.399, -0.003]","[-0.203, -0.347]","[-0.2, 0.346]","[0.306, 0.255]","[0.066, -0.395]","[-0.377, 0.138]",,12.51051594999808,26.310754350000934,21.39612594999926,"[0.06851851851851852, 0.08055555555555556, -0.10925925925925926, -0.12777777777777777]","[0.325, -0.3527777777777778, 0.26851851851851855, 0.275]","[1, 1, 1, 1]","[0, 0, 0, 0]","[0, 0, 0, 0]","[12.495766399999411, 21.38070030000017, 25.629739100000734, 26.295551399998658]",0.014307149998785462,26.30964844999835,['A1'],['B3'],['C2'],['salmon'],['blue'],['yellow'],1202.9068497999979,None,7.0,2.0976994000011473,1202.9068497999979,None,1208.340313599998,None,9.0,2.315255599998636,1205.0736074999986,None,2.0,3.2640007000009064,1210.6902797000002,None,10.0,3.431481600000552,<function functionImportanceC at 0x0000014900BEB6A8>,<function functionImportanceA at 0x0000014900BEB488>,<function functionImportanceB at 0x0000014900BEB620>,,,-0.0,2.59777430000031,9.0,2.64796330000172,2.0,2.315255599998636,<function functiondiffB at 0x0000014900BEB158>,<function functiondiffA at 0x0000014900BEB730>,<function functiondiffC at 0x0000014900BEBEA0>,,,,,1176.1262013999985,1216.7234556000003,None,1219.3901260999992,None,1214.1067616999972,None,005,001,2022_Jun_13_1643,2leo,2021.2.3,60.00294014331605,
3,34,Plan what car you want to buy,Stimuli/34A1.jpg,Stimuli/34A2.jpg,Stimuli/34A3.jpg,Stimuli/34B1.jpg,Stimuli/34B2.jpg,Stimuli/34B3.jpg,Stimuli/34C1.jpg,Stimuli/34C2.jpg,Stimuli/34C3.jpg,,,,,0,17,17,34,,,,,,,,1224.006512699998,None,1225.0063381,None,1231.006442599999,None,"[0.07, 0.393]","[0.304, -0.26]","[-0.378, -0.136]","[0.306, 0.255]","[0.066, -0.395]","[-0.377, 0.138]","[0.399, -0.003]","[-0.203, -0.347]","[-0.2, 0.346]",,11.437451450005028,7.021375950003858,3.2220181500051694,"[-0.1814814814814815, 0.32222222222222224, 0.10185185185185185]","[-0.3175925925925926, 0.22870370370370371, 0.35]","[1, 1, 1]","[0, 0, 0]","[0, 0, 0]","[3.208373000001302, 7.007907100000011, 11.424315000000206]",0.012423950003721984,11.43691955000395,['A1'],['B1'],['C2'],['salmon'],['blue'],['yellow'],1245.972349599997,None,10.0,2.080374399996799,1245.972349599997,None,1252.655795999999,None,10.0,2.9648808000019926,1254.622483199997,None,10.0,1.6319466999993892,1249.0893049999977,None,10.0,3.497972999997728,<function functionImportanceB at 0x0000014900670F28>,<function functionImportanceA at 0x0000014900670EA0>,<function functionImportanceC at 0x0000014900BEB9D8>,,,3.0,4.631399199999578,0.0,4.314176100000623,-0.0,2.9648808000019926,<function functiondiffA at 0x0000014900BEB378>,<function functiondiffB at 0x0000014900222AE8>,<function functiondiffC at 0x0000014900FCA0D0>,,,,,1234.0803024999987,1256.5724367000003,None,1265.205443699997,None,1260.8056488000002,None,005,001,2022_Jun_13_1643,2leo,2021.2.3,60.00294014331605,
3,1,Plan how to study for an exam,Stimuli/1A1.jpg,Stimuli/1A2.jpg,Stimuli/1A3.jpg,Stimuli/1B1.jpg,Stimuli/1B2.jpg,Stimuli/1B3.jpg,Stimuli/1C1.jpg,Stimuli/1C2.jpg,Stimuli/1C3.jpg,,,,,0,18,18,1,,,,,,,,1266.1218558,None,1267.1219134999992,None,1273.1218238000001,None,"[0.07, 0.393]","[0.304, -0.26]","[-0.378, -0.136]","[0.306, 0.255]","[0.066, -0.395]","[-0.377, 0.138]","[0.399, -0.003]","[-0.203, -0.347]","[-0.2, 0.346]",,12.499397899995529,7.551290199993673,7.2170280999962415,"[0.412962962962963, 0.36666666666666664, 0.12777777777777777]","[0.03981481481481482, 0.18333333333333332, 0.3287037037037037]","[1, 1, 1]","[0, 0, 0]","[0, 0, 0]","[7.207252399999561, 7.541927599999326, 12.49027489999935]",0.008701099995960249,12.498906399992848,['A1'],['B1'],['C1'],['yellow'],['blue'],['salmon'],1287.1880150999968,None,10.0,1.4471746999988682,1287.1880150999968,None,1292.104876399997,None,10.0,2.2649315999988175,1294.3380132999991,None,10.0,2.232112199999392,1288.7234606999991,None,4.0,3.3644743000004382,<function functionImportanceB at 0x0000014900FCA9D8>,<function functionImportanceA at 0x00000149006702F0>,<function functionImportanceC at 0x0000014900FCA598>,,,3.0,1.8808606000020518,8.0,5.147573599999305,-0.0,2.2649315999988175,<function functiondiffA at 0x0000014900BEBA60>,<function functiondiffC at 0x00000149006708C8>,<function functiondiffB at 0x0000014900BEBD90>,,,,,1274.2117755,1296.5881071999975,None,1301.7379296,None,1303.787673499999,None,005,001,2022_Jun_13_1643,2leo,2021.2.3,60.00294014331605,
3,16,Plan a delicious cake for the birthday of a friend,Stimuli/16A1.jpg,Stimuli/16A2.jpg,Stimuli/16A3.jpg,Stimuli/16B1.jpg,Stimuli/16B2.jpg,Stimuli/16B3.jpg,Stimuli/16C1.jpg,Stimuli/16C2.jpg,Stimuli/16C3.jpg,,,,,0,19,19,16,,,,,,,,1305.2041826999994,None,1306.2041678999994,None,1312.2043102999996,None,"[0.07, 0.393]","[-0.378, -0.136]","[0.304, -0.26]","[0.306, 0.255]","[-0.377, 0.138]","[0.066, -0.395]","[0.399, -0.003]","[-0.2, 0.346]","[-0.203, -0.347]",,7.114826100001665,13.164845200000855,16.383112499999697,"[-0.37592592592592594, 0.24166666666666667, -0.11851851851851852]","[-0.15, 0.22962962962962963, -0.262037037037037]","[1, 1, 1]","[0, 0, 0]","[0, 0, 0]","[7.1134235999998054, 13.163265599996521, 16.381117499997345]",0.0008888000011211261,16.380552700000408,['A2'],['B1'],['C3'],['salmon'],['yellow'],['blue'],1330.470120599999,None,10.0,1.1624602000010782,1330.470120599999,None,1336.9202368999977,None,10.0,1.9142929000008735,1333.9559499999996,None,3.0,3.0148790999992343,1331.9201098999984,None,10.0,2.1645818000033614,<function functionImportanceB at 0x0000014900FCA730>,<function functionImportanceC at 0x0000014900FCA510>,<function functionImportanceA at 0x0000014900FCA840>,,,1.0,1.3814023000013549,0.0,2.764617400000134,4.0,1.9142929000008735,<function functiondiffC at 0x0000014900BEB8C8>,<function functiondiffA at 0x0000014900BEB0D0>,<function functiondiffB at 0x0000014900BEB268>,,,,,1313.6067822999976,1342.053631699997,None,1338.8367323999992,None,1344.8700360999974,None,005,001,2022_Jun_13_1643,2leo,2021.2.3,60.00294014331605,
3,19,Plan how you want your garden to look like,Stimuli/19A1.jpg,Stimuli/19A2.jpg,Stimuli/19A3.jpg,Stimuli/19B1.jpg,Stimuli/19B2.jpg,Stimuli/19B3.jpg,Stimuli/19C1.jpg,Stimuli/19C2.jpg,Stimuli/19C3.jpg,,,,,0,20,20,19,,,,,,,,1345.7364683999986,None,1346.736442399997,None,1352.7365462999987,None,"[0.399, -0.003]","[-0.203, -0.347]","[-0.2, 0.346]","[0.306, 0.255]","[0.066, -0.395]","[-0.377, 0.138]","[0.07, 0.393]","[0.304, -0.26]","[-0.378, -0.136]",,11.068465500004095,20.83456450000449,9.568379700005607,"[-0.3111111111111111, 0.3685185185185185, -0.2916666666666667, -0.287962962962963]","[-0.06851851851851852, -0.06666666666666667, 0.046296296296296294, 0.08148148148148149]","[1, 1, 1, 1]","[0, 0, 0, 0]","[0, 0, 0, 0]","[9.561903400001029, 11.062727299999096, 18.761506999999256, 20.82837759999893]",0.005331800006388221,20.833430000006047,['A1'],['B3'],['C3'],['salmon'],['yellow'],['blue'],1377.6691307,None,7.0,1.4637125000008382,1377.6691307,None,1387.2190104999972,None,0.0,3.4482892000014544,1380.5857689000004,None,10.0,3.463913700001285,1383.8052174000004,None,7.0,4.498359400000481,<function functionImportanceC at 0x0000014900FCA048>,<function functionImportanceB at 0x0000014900FCA950>,<function functionImportanceA at 0x0000014900222378>,,,9.0,3.097932499997114,0.0,1.5643444999986968,1.0,3.4482892000014544,<function functiondiffA at 0x0000014900FCAF28>,<function functiondiffC at 0x0000014900670510>,<function functiondiffB at 0x0000014900670D08>,,,,,1356.3742738999972,1390.6355358,None,1392.585433199998,None,1398.7864986999994,None,005,001,2022_Jun_13_1643,2leo,2021.2.3,60.00294014331605,
3,24,Plan your Monday morning on a workday ,Stimuli/24A1.jpg,Stimuli/24A2.jpg,Stimuli/24A3.jpg,Stimuli/24B1.jpg,Stimuli/24B2.jpg,Stimuli/24B3.jpg,Stimuli/24C1.jpg,Stimuli/24C2.jpg,Stimuli/24C3.jpg,,,,,0,21,21,24,,,,,,,,1401.1517189999977,None,1402.1518441999979,None,1408.1518701999994,None,"[-0.203, -0.347]","[-0.2, 0.346]","[0.399, -0.003]","[0.066, -0.395]","[-0.377, 0.138]","[0.306, 0.255]","[0.304, -0.26]","[-0.378, -0.136]","[0.07, 0.393]",,10.46096580000085,23.04399790000025,19.511382700002287,"[-0.13240740740740742, -0.12962962962962962, 0.03333333333333333, -0.387037037037037]","[-0.2518518518518518, -0.2611111111111111, 0.337037037037037, 0.07407407407407407]","[1, 1, 1, 1]","[0, 0, 0, 0]","[0, 0, 0, 0]","[9.679652000002534, 10.446145400001114, 19.49584810000306, 23.02878700000292]",0.014413799999601906,23.0431451000004,['A1'],['B2'],['C3'],['yellow'],['blue'],['salmon'],1432.783958699998,None,5.0,2.6970830999998725,1432.783958699998,None,1435.5510303999981,None,10.0,3.447722100001556,1439.0510176999996,None,6.0,3.8319030000020575,1442.884212699999,None,1.0,3.1984201000013854,<function functionImportanceA at 0x0000014900FCA1E0>,<function functionImportanceC at 0x0000014900FCA378>,<function functionImportanceB at 0x0000014900FCA400>,,,0.0,2.4810741000001144,9.0,2.6643339000002015,8.0,3.447722100001556,<function functiondiffB at 0x0000014900FCABF8>,<function functiondiffC at 0x0000014900FCAE18>,<function functiondiffA at 0x0000014900FCA2F0>,,,,,1409.269494799999,1450.9340267999978,None,1448.5507199999993,None,1446.0507560999977,None,005,001,2022_Jun_13_1643,2leo,2021.2.3,60.00294014331605,
3,11,Plan a hike in nature on a free day,Stimuli/11A1.jpg,Stimuli/11A2.jpg,Stimuli/11A3.jpg,Stimuli/11B1.jpg,Stimuli/11B2.jpg,Stimuli/11B3.jpg,Stimuli/11C1.jpg,Stimuli/11C2.jpg,Stimuli/11C3.jpg,,,,,0,22,22,11,,,,,,,,1453.117055499999,None,1454.1171203999984,None,1460.1171455000003,None,"[0.066, -0.395]","[0.306, 0.255]","[-0.377, 0.138]","[0.304, -0.26]","[0.07, 0.393]","[-0.378, -0.136]","[-0.203, -0.347]","[0.399, -0.003]","[-0.2, 0.346]",,7.185411599999497,3.8020331999978225,12.08541089999926,"[0.0787037037037037, 0.2722222222222222, -0.23055555555555557]","[0.32222222222222224, 0.262037037037037, 0.3592592592592593]","[1, 1, 1]","[0, 0, 0]","[0, 0, 0]","[3.7998458000001847, 7.1834861999996065, 12.08289539999896]",0.001427999999577878,12.08427649999794,['A2'],['B2'],['C3'],['blue'],['yellow'],['salmon'],1473.8163996000003,None,9.0,1.6805320999992546,1473.8163996000003,None,1478.8512133000004,None,9.0,2.131895499998791,1481.0164820999998,None,9.0,2.031878699999652,1475.566596499997,None,8.0,3.281203500002448,<function functionImportanceB at 0x0000014900FCAD90>,<function functionImportanceA at 0x0000014900BEBD08>,<function functionImportanceC at 0x00000149014C7048>,,,3.0,2.931323300002987,2.0,6.581230699997832,6.0,2.131895499998791,<function functiondiffB at 0x0000014900FCA158>,<function functiondiffC at 0x0000014900FCAD08>,<function functiondiffA at 0x0000014900FCA6A8>,,,,,1461.2488027,1489.749613099997,None,1485.9832050999976,None,1483.033201299997,None,005,001,2022_Jun_13_1643,2leo,2021.2.3,60.00294014331605,
3,9,Plan a picnic with friends,Stimuli/9A1.jpg,Stimuli/9A2.jpg,Stimuli/9A3.jpg,Stimuli/9B1.jpg,Stimuli/9B2.jpg,Stimuli/9B3.jpg,Stimuli/9C1.jpg,Stimuli/9C2.jpg,Stimuli/9C3.jpg,,,,,0,23,23,9,,,,,,,,1495.8489483999983,None,1496.8491429999995,None,1502.8493219999982,None,"[0.306, 0.255]","[-0.377, 0.138]","[0.066, -0.395]","[0.399, -0.003]","[-0.2, 0.346]","[-0.203, -0.347]","[0.07, 0.393]","[-0.378, -0.136]","[0.304, -0.26]",,15.572015300011117,18.288718600011634,16.539487100009865,"[-0.287962962962963, -0.3055555555555556, 0.39444444444444443]","[0.14444444444444443, -0.05092592592592592, 0.000925925925925926]","[1, 1, 1]","[0, 0, 0]","[0, 0, 0]","[15.563773000001675, 16.530668700001115, 18.28025610000259]",0.00770990001183236,18.287900700008322,['A2'],['B1'],['C2'],['yellow'],['salmon'],['blue'],1526.9483263999973,None,8.0,1.597000099998695,1526.9483263999973,None,1534.2495894999993,None,2.0,3.8981043999992835,1530.0651918999974,None,9.0,4.131296499999735,1537.9649711999991,None,10.0,4.348694899999828,<function functionImportanceC at 0x0000014900FCA8C8>,<function functionImportanceA at 0x0000014900FCAB70>,<function functionImportanceB at 0x0000014900FCAEA0>,,,2.0,3.631528600002639,6.0,3.5306005000020377,3.0,3.8981043999992835,<function functiondiffB at 0x0000014900FCA620>,<function functiondiffC at 0x00000149014C71E0>,<function functiondiffA at 0x0000014900FCAA60>,,,,,1508.2026374999987,1551.0312123000003,None,1545.1315147999994,None,1541.4001155999977,None,005,001,2022_Jun_13_1643,2leo,2021.2.3,60.00294014331605,
3,15,Plan your own Pasta for lunch,Stimuli/15A1.jpg,Stimuli/15A2.jpg,Stimuli/15A3.jpg,Stimuli/15B1.jpg,Stimuli/15B2.jpg,Stimuli/15B3.jpg,Stimuli/15C1.jpg,Stimuli/15C2.jpg,Stimuli/15C3.jpg,,,,,0,24,24,15,,,,,,,,1553.6143268999986,None,1554.6146289999997,None,1560.6143194999968,None,"[0.066, -0.395]","[-0.377, 0.138]","[0.306, 0.255]","[0.304, -0.26]","[-0.378, -0.136]","[0.07, 0.393]","[-0.203, -0.347]","[-0.2, 0.346]","[0.399, -0.003]",,3.98118329999852,11.281493299997237,9.881540299997141,"[0.023148148148148147, 0.3490740740740741, -0.31574074074074077]","[-0.39166666666666666, 0.044444444444444446, -0.07314814814814814]","[1, 1, 1]","[0, 0, 0]","[0, 0, 0]","[3.9688526000027196, 9.868519600000582, 11.268808299999364]",0.011909699998795986,11.280427300000156,['A1'],['B2'],['C3'],['salmon'],['yellow'],['blue'],1574.2970915999977,None,10.0,2.646476599999005,1574.2970915999977,None,1583.513681499997,None,10.0,2.115161599998828,1580.5971701999988,None,10.0,3.5316249999996217,1577.030450299997,None,9.0,2.8146704000027967,<function functionImportanceB at 0x00000149014C72F0>,<function functionImportanceC at 0x00000149014C7840>,<function functionImportanceA at 0x0000014900FCAAE8>,,,0.0,2.2145268999993277,2.0,3.0650271999984398,1.0,2.115161599998828,<function functiondiffC at 0x0000014900670840>,<function functiondiffA at 0x0000014900FCA488>,<function functiondiffB at 0x0000014900670E18>,,,,,1562.5572305999995,1593.6134151999977,None,1585.648873299997,None,1596.6966302999972,None,005,001,2022_Jun_13_1643,2leo,2021.2.3,60.00294014331605,
3,36,Plan your shopping for new clothing,Stimuli/36A1.jpg,Stimuli/36A2.jpg,Stimuli/36A3.jpg,Stimuli/36B1.jpg,Stimuli/36B2.jpg,Stimuli/36B3.jpg,Stimuli/36C1.jpg,Stimuli/36C2.jpg,Stimuli/36C3.jpg,,,,,0,25,25,36,,,,,,,,1598.429783399999,None,1599.429934599997,None,1605.4299644999992,None,"[-0.2, 0.346]","[0.399, -0.003]","[-0.203, -0.347]","[-0.378, -0.136]","[0.07, 0.393]","[0.304, -0.26]","[-0.377, 0.138]","[0.306, 0.255]","[0.066, -0.395]",,16.089629949998198,23.573362349998206,26.339920249996794,"[-0.11574074074074074, 0.33425925925925926, 0.09259259259259259]","[0.32685185185185184, -0.2722222222222222, -0.30648148148148147]","[1, 1, 1]","[0, 0, 0]","[0, 0, 0]","[16.08538849999968, 23.56868949999989, 26.33494140000039]",0.003836849999061087,26.33859974999723,['A1'],['B3'],['C3'],['salmon'],['blue'],['yellow'],1633.3621575999969,None,6.0,3.013518700001441,1633.3621575999969,None,1642.4288785999997,None,0.0,1.8486441999993986,1636.462346999997,None,10.0,3.2647116000007372,1639.7122008999977,None,6.0,2.6816895000010845,<function functionImportanceC at 0x00000149014C7488>,<function functionImportanceB at 0x00000149014C7620>,<function functionImportanceA at 0x00000149014C7598>,,,3.0,3.864709199999197,4.0,2.381111400001828,1.0,1.8486441999993986,<function functiondiffC at 0x00000149014C7950>,<function functiondiffA at 0x00000149014C7D90>,<function functiondiffB at 0x00000149014C7BF8>,,,,,1606.5419247999998,1647.5788708999971,None,1644.2454410999999,None,1649.9787044999975,None,005,001,2022_Jun_13_1643,2leo,2021.2.3,60.00294014331605,
3,23,Plan a city trip,Stimuli/23A1.jpg,Stimuli/23A2.jpg,Stimuli/23A3.jpg,Stimuli/23B1.jpg,Stimuli/23B2.jpg,Stimuli/23B3.jpg,Stimuli/23C1.jpg,Stimuli/23C2.jpg,Stimuli/23C3.jpg,,,,,0,26,26,23,,,,,,,,1653.3616705999993,None,1654.3617185000003,None,1660.361798599999,None,"[-0.377, 0.138]","[0.066, -0.395]","[0.306, 0.255]","[-0.2, 0.346]","[-0.203, -0.347]","[0.399, -0.003]","[-0.378, -0.136]","[0.304, -0.26]","[0.07, 0.393]",,30.91635834999761,12.98358664999978,25.166695649997564,"[-0.2361111111111111, 0.2574074074074074, 0.1]","[-0.26944444444444443, -0.22407407407407406, -0.3296296296296296]","[1, 1, 1]","[0, 0, 0]","[0, 0, 0]","[12.973665299999993, 25.156526399998256, 30.90675629999896]",0.009112249997997424,30.91566634999981,['A2'],['B2'],['C2'],['yellow'],['blue'],['salmon'],1692.8940498999982,None,8.0,2.08031199999823,1692.8940498999982,None,1699.4608128,None,4.0,2.6153509999967355,1702.1437841999978,None,1.0,3.7828794000015478,1695.044219899999,None,10.0,4.414431699999113,<function functionImportanceB at 0x00000149014C7730>,<function functionImportanceA at 0x00000149014C7158>,<function functionImportanceC at 0x00000149014C7EA0>,,,9.0,2.7805370000023686,6.0,6.56457170000067,0.0,2.6153509999967355,<function functiondiffB at 0x00000149014C7A60>,<function functiondiffC at 0x00000149014C7B70>,<function functiondiffA at 0x00000149014C76A8>,,,,,1661.5021573999984,1711.5268483,None,1708.6771853999999,None,1705.8772142999987,None,005,001,2022_Jun_13_1643,2leo,2021.2.3,60.00294014331605,
3,40,Plan to see a sports event ,Stimuli/40A1.jpg,Stimuli/40A2.jpg,Stimuli/40A3.jpg,Stimuli/40B1.jpg,Stimuli/40B2.jpg,Stimuli/40B3.jpg,Stimuli/40C1.jpg,Stimuli/40C2.jpg,Stimuli/40C3.jpg,,,,,0,27,27,40,,,,,,,,1717.610012899997,None,1718.6100686999998,None,1724.6100976999987,None,"[-0.2, 0.346]","[0.399, -0.003]","[-0.203, -0.347]","[-0.378, -0.136]","[0.07, 0.393]","[0.304, -0.26]","[-0.377, 0.138]","[0.306, 0.255]","[0.066, -0.395]",,25.050927500000398,19.28458899999896,13.818401399999857,"[-0.3398148148148148, -0.2851851851851852, -0.29074074074074074, -0.19537037037037036]","[0.09259259259259259, -0.13703703703703704, -0.13703703703703704, -0.39537037037037037]","[1, 1, 1, 1]","[0, 0, 0, 0]","[0, 0, 0, 0]","[13.815359600001102, 18.665188800001488, 19.28180870000142, 25.04824799999915]",0.002088900000671856,25.050158800000645,['A3'],['B1'],['C1'],['blue'],['yellow'],['salmon'],1751.4424032999996,None,10.0,2.063794699999562,1751.4424032999996,None,1759.5924983999976,None,10.0,1.7320256999992125,1753.576090399998,None,-0.0,2.980798499997036,1756.709077399999,None,10.0,2.982197700002871,<function functionImportanceC at 0x00000149019DC0D0>,<function functionImportanceB at 0x00000149014C7F28>,<function functionImportanceA at 0x0000014900FCA268>,,,3.0,4.697362400002021,0.0,3.5310706999989634,8.0,1.7320256999992125,<function functiondiffB at 0x00000149014C7E18>,<function functiondiffC at 0x00000149014C77B8>,<function functiondiffA at 0x00000149014C7C80>,,,,,1725.911118099997,1769.492294599997,None,1766.008930099997,None,1761.3257687999976,None,005,001,2022_Jun_13_1643,2leo,2021.2.3,60.00294014331605,
3,2,Plan which ingredients you want to use for cooking dinner today,Stimuli/2A1.jpg,Stimuli/2A2.jpg,Stimuli/2A3.jpg,Stimuli/2B1.jpg,Stimuli/2B2.jpg,Stimuli/2B3.jpg,Stimuli/2C1.jpg,Stimuli/2C2.jpg,Stimuli/2C3.jpg,,,,,0,28,28,2,,,,,,,,1772.5419113999997,None,1773.5421481999983,None,1779.5421496999988,None,"[-0.203, -0.347]","[-0.2, 0.346]","[0.399, -0.003]","[0.304, -0.26]","[-0.378, -0.136]","[0.07, 0.393]","[0.066, -0.395]","[-0.377, 0.138]","[0.306, 0.255]",,15.215761250012292,20.332539850012836,5.049518450014148,"[-0.36666666666666664, 0.34814814814814815, -0.014814814814814815]","[0.20092592592592592, 0.0712962962962963, 0.3277777777777778]","[1, 1, 1]","[0, 0, 0]","[0, 0, 0]","[5.040583800000604, 15.207323300001008, 20.323841299999913]",0.007835750013327925,20.331413850013632,['A3'],['B3'],['C2'],['blue'],['yellow'],['salmon'],1806.374502499999,None,10.0,1.5976258999980928,1806.374502499999,None,1821.2076080999977,None,9.0,2.9650092999982007,1818.1575914999994,None,10.0,2.5483999000025506,1811.3075159999971,None,10.0,9.4631238999973,<function functionImportanceB at 0x00000149019DC048>,<function functionImportanceC at 0x00000149019DC400>,<function functionImportanceA at 0x0000014900BEB598>,,,8.0,5.080621900000551,0.0,3.1978100999986054,0.0,2.9650092999982007,<function functiondiffB at 0x00000149014C7378>,<function functiondiffA at 0x00000149014C7400>,<function functiondiffC at 0x00000149019DC9D8>,,,,,1785.5867241999986,1828.4407885,None,1831.5239828999984,None,1823.8908988000003,None,005,001,2022_Jun_13_1643,2leo,2021.2.3,60.00294014331605,
3,8,Plan the interior of your living-room ,Stimuli/8A1.jpg,Stimuli/8A2.jpg,Stimuli/8A3.jpg,Stimuli/8B1.jpg,Stimuli/8B2.jpg,Stimuli/8B3.jpg,Stimuli/8C1.jpg,Stimuli/8C2.jpg,Stimuli/8C3.jpg,,,,,0,29,29,8,,,,,,,,1833.9569555999988,None,1834.9570749999984,None,1840.9571590999985,None,"[-0.378, -0.136]","[0.07, 0.393]","[0.304, -0.26]","[-0.2, 0.346]","[0.399, -0.003]","[-0.203, -0.347]","[-0.377, 0.138]","[0.306, 0.255]","[0.066, -0.395]",,8.022813850002422,13.739502950003953,8.872973450004793,"[-0.36018518518518516, 0.33055555555555555, 0.32037037037037036]","[-0.16018518518518518, 0.17592592592592593, 0.025925925925925925]","[1, 1, 1]","[0, 0, 0]","[0, 0, 0]","[8.008528900001693, 8.858086399999593, 13.724848600002588]",0.013874150001356611,13.738404750001791,['A1'],['B2'],['C2'],['yellow'],['salmon'],['blue'],1860.0396327999988,None,10.0,1.213690399999905,1860.0396327999988,None,1869.8562410999984,None,10.0,2.5651030000008177,1867.1229534999984,None,10.0,4.648326300000917,1863.223137099998,None,6.0,3.8146983000006003,<function functionImportanceB at 0x00000149019DC950>,<function functionImportanceC at 0x00000149019DC378>,<function functionImportanceA at 0x00000149019DC510>,,,-0.0,4.697740600000543,3.0,3.4814659000003303,-0.0,2.5651030000008177,<function functiondiffA at 0x00000149019DC6A8>,<function functiondiffC at 0x00000149019DC488>,<function functiondiffB at 0x00000149019DC2F0>,,,,,1845.848129799997,1872.3729521999994,None,1876.439415599998,None,1880.9726082999987,None,005,001,2022_Jun_13_1643,2leo,2021.2.3,60.00294014331605,
3,7,Plan your Sunday breakfast ,Stimuli/7A1.jpg,Stimuli/7A2.jpg,Stimuli/7A3.jpg,Stimuli/7B1.jpg,Stimuli/7B2.jpg,Stimuli/7B3.jpg,Stimuli/7C1.jpg,Stimuli/7C2.jpg,Stimuli/7C3.jpg,,,,,0,30,30,7,,,,,,,,1890.3557330999975,None,1891.355743199998,None,1897.3556007999978,None,"[-0.378, -0.136]","[0.07, 0.393]","[0.304, -0.26]","[-0.2, 0.346]","[0.399, -0.003]","[-0.203, -0.347]","[-0.377, 0.138]","[0.306, 0.255]","[0.066, -0.395]",,15.664988700009417,20.481750000009924,22.99861700000838,"[0.05648148148148148, -0.15555555555555556, -0.35555555555555557]","[0.3509259259259259, 0.30833333333333335, 0.10555555555555556]","[1, 1, 1]","[0, 0, 0]","[0, 0, 0]","[15.656920699999318, 20.473513699998875, 22.990080800002033]",0.007512000011047348,22.997580700008257,['A2'],['B1'],['C1'],['salmon'],['yellow'],['blue'],1926.8379118999983,None,8.0,2.214071900001727,1926.8379118999983,None,1930.8712766999997,None,10.0,4.497639199998957,1941.0877123999999,None,2.0,3.09860000000117,1935.5708597999983,None,10.0,6.148276399999304,<function functionImportanceA at 0x0000014900FCAC80>,<function functionImportanceB at 0x00000149014C7D08>,<function functionImportanceC at 0x00000149019DCAE8>,,,10.0,2.047691499999928,-0.0,3.4313203999990947,1.0,4.497639199998957,<function functiondiffA at 0x00000149019DC1E0>,<function functiondiffB at 0x00000149019DC8C8>,<function functiondiffC at 0x00000149019DCD08>,,,,,1903.3842908999977,1943.404232099998,None,1948.754117299999,None,1947.0042665,None,005,001,2022_Jun_13_1643,2leo,2021.2.3,60.00294014331605,
3,12,Plan the ingredients to mix yourself a cocktail,Stimuli/12A1.jpg,Stimuli/12A2.jpg,Stimuli/12A3.jpg,Stimuli/12B1.jpg,Stimuli/12B2.jpg,Stimuli/12B3.jpg,Stimuli/12C1.jpg,Stimuli/12C2.jpg,Stimuli/12C3.jpg,,,,,0,31,31,12,,,,,,,,1951.1204940999996,None,1952.1208885999986,None,1958.1205841999981,None,"[-0.2, 0.346]","[0.399, -0.003]","[-0.203, -0.347]","[-0.378, -0.136]","[0.07, 0.393]","[0.304, -0.26]","[-0.377, 0.138]","[0.306, 0.255]","[0.066, -0.395]",,13.195849550000275,12.679248749998806,18.096089949998714,"[-0.44537037037037036, -0.1361111111111111, -0.4444444444444444]","[-0.08425925925925926, 0.36574074074074076, 0.1388888888888889]","[1, 1, 1]","[0, 0, 0]","[0, 0, 0]","[12.662965199997416, 13.179875099998753, 18.07951089999915]",0.015488949997234158,18.09496644999672,['A1'],['B1'],['C1'],['blue'],['yellow'],['salmon'],1977.853289499999,None,3.0,2.1134996000000683,1977.853289499999,None,1980.1032788999983,None,8.0,3.9994745000003604,1986.4029168999987,None,9.0,1.832134500000393,1984.1061044999988,None,6.0,2.315058100000897,<function functionImportanceA at 0x0000014900BEB2F0>,<function functionImportanceB at 0x00000149019DCEA0>,<function functionImportanceC at 0x0000014901D85730>,,,6.0,6.198198999998567,8.0,2.6145486000023084,2.0,3.9994745000003604,<function functiondiffC at 0x00000149019DC620>,<function functiondiffA at 0x00000149019DC268>,<function functiondiffB at 0x00000149019DCD90>,,,,,1959.2890026999994,1992.2029885999982,None,1988.2032543999994,None,1994.8361777999999,None,005,001,2022_Jun_13_1643,2leo,2021.2.3,60.00294014331605,
3,44,Plan a party at your place,Stimuli/44A1.jpg,Stimuli/44A2.jpg,Stimuli/44A3.jpg,Stimuli/44B1.jpg,Stimuli/44B2.jpg,Stimuli/44B3.jpg,Stimuli/44C1.jpg,Stimuli/44C2.jpg,Stimuli/44C3.jpg,,,,,0,32,32,44,,,,,,,,2000.5525296999986,None,2001.5525940999978,None,2007.5525574999992,None,"[0.07, 0.393]","[-0.378, -0.136]","[0.304, -0.26]","[0.399, -0.003]","[-0.2, 0.346]","[-0.203, -0.347]","[0.306, 0.255]","[-0.377, 0.138]","[0.066, -0.395]",,16.009728599998198,11.176879899998312,20.87684889999946,"[-0.15, -0.30092592592592593, 0.19814814814814816, 0.19722222222222222, 0.30648148148148147]","[0.2814814814814815, -0.10462962962962963, 0.18888888888888888, 0.18888888888888888, 0.20555555555555555]","[1, 1, 1, 1, 1]","[0, 0, 0, 0, 0]","[0, 0, 0, 0, 0]","[11.162119399999938, 15.995294399999693, 20.045157799999288, 20.26193399999829, 20.862007100000483]",0.013911899997765431,20.875604900000326,['A2'],['B2'],['C1'],['blue'],['yellow'],['salmon'],2030.0185752999969,None,6.0,2.863875299997744,2030.0185752999969,None,2032.9350653000001,None,10.0,4.297503100002359,2037.2685122000003,None,10.0,2.582112000000052,2039.868489499997,None,8.0,2.114983100000245,<function functionImportanceA at 0x0000014900BEBC80>,<function functionImportanceC at 0x0000014901D850D0>,<function functionImportanceB at 0x0000014901D851E0>,,,8.0,3.0645858999996562,3.0,3.2315500999975484,3.0,4.297503100002359,<function functiondiffC at 0x0000014901D85400>,<function functiondiffB at 0x00000149019DC840>,<function functiondiffA at 0x00000149019DC7B8>,,,,,2008.6720711999988,2048.2016774000003,None,2041.9683358999973,None,2045.1182464999983,None,005,001,2022_Jun_13_1643,2leo,2021.2.3,60.00294014331605,
3,10,Plan a restaurant visit with your family on the weekend ,Stimuli/10A1.jpg,Stimuli/10A2.jpg,Stimuli/10A3.jpg,Stimuli/10B1.jpg,Stimuli/10B2.jpg,Stimuli/10B3.jpg,Stimuli/10C1.jpg,Stimuli/10C2.jpg,Stimuli/10C3.jpg,,,,,0,33,33,10,,,,,,,,2050.9510179999997,None,2051.951328199997,None,2057.9518003999983,None,"[0.066, -0.395]","[-0.377, 0.138]","[0.306, 0.255]","[0.304, -0.26]","[-0.378, -0.136]","[0.07, 0.393]","[-0.203, -0.347]","[-0.2, 0.346]","[0.399, -0.003]",,19.41842135000479,9.550491650006734,3.1511285500055237,"[-0.18425925925925926, 0.31666666666666665, 0.07314814814814814]","[0.34629629629629627, -0.17314814814814813, -0.3314814814814815]","[1, 1, 1]","[0, 0, 0]","[0, 0, 0]","[3.1353987000002235, 9.535204499999963, 19.402948999999353]",0.014615950007282663,19.416546450007445,['A1'],['B1'],['C2'],['yellow'],['salmon'],['blue'],2081.7504444999977,None,3.0,2.329525500001182,2081.7504444999977,None,2084.250565099999,None,2.0,4.93112789999941,2089.083884099997,None,10.0,2.1150739999975485,2093.9337830999975,None,7.0,7.73165119999976,<function functionImportanceA at 0x0000014901D85620>,<function functionImportanceC at 0x0000014901D85AE8>,<function functionImportanceB at 0x0000014901D85A60>,,,9.0,4.631080200000724,6.0,5.51425929999823,0.0,4.93112789999941,<function functiondiffC at 0x0000014901D85D08>,<function functiondiffB at 0x0000014901D85158>,<function functiondiffA at 0x0000014901D85268>,,,,,2061.8647863999977,2106.300054299998,None,2098.950297399999,None,2102.4001666000004,None,005,001,2022_Jun_13_1643,2leo,2021.2.3,60.00294014331605,
3,3,Plan a movie night with a friend,Stimuli/3A1.jpg,Stimuli/3A2.jpg,Stimuli/3A3.jpg,Stimuli/3B1.jpg,Stimuli/3B2.jpg,Stimuli/3B3.jpg,Stimuli/3C1.jpg,Stimuli/3C2.jpg,Stimuli/3C3.jpg,,,,,0,34,34,3,,,,,,,,2111.3160519999983,None,2112.3164915999987,None,2118.3164674,None,"[0.304, -0.26]","[0.07, 0.393]","[-0.378, -0.136]","[0.066, -0.395]","[0.306, 0.255]","[-0.377, 0.138]","[-0.203, -0.347]","[0.399, -0.003]","[-0.2, 0.346]",,13.433127250005782,21.216999750005925,24.41702945000361,"[0.30648148148148147, -0.3037037037037037, -0.1037037037037037]","[-0.3287037037037037, 0.1398148148148148, 0.25833333333333336]","[1, 1, 1]","[0, 0, 0]","[0, 0, 0]","[13.419892300000356, 21.20331200000146, 24.036654999999882]",0.012815450005291495,24.415797150002618,['A1'],['B3'],['C3'],['salmon'],['yellow'],['blue'],2146.765225799998,None,10.0,1.9133417999983067,2146.765225799998,None,2148.748991799999,None,7.0,2.747394299996813,2153.2327721999973,None,9.0,4.014937400002964,2156.3820527999997,None,10.0,3.198924700001953,<function functionImportanceA at 0x00000149019DCA60>,<function functionImportanceC at 0x0000014901D85B70>,<function functionImportanceB at 0x0000014901D85950>,,,0.0,3.597336999999243,8.0,2.748552600001858,-0.0,2.747394299996813,<function functiondiffB at 0x00000149019DC598>,<function functiondiffA at 0x0000014901D85D90>,<function functiondiffC at 0x00000149019DC158>,,,,,2121.894087599998,2162.348427099998,None,2165.4483492,None,2159.098720599999,None,005,001,2022_Jun_13_1643,2leo,2021.2.3,60.00294014331605,
3,22,Plan a beach day with your friends,Stimuli/22A1.jpg,Stimuli/22A2.jpg,Stimuli/22A3.jpg,Stimuli/22B1.jpg,Stimuli/22B2.jpg,Stimuli/22B3.jpg,Stimuli/22C1.jpg,Stimuli/22C2.jpg,Stimuli/22C3.jpg,,,,,0,35,35,22,,,,,,,,2166.9979281999986,None,2167.9981709999993,None,2173.998410199998,None,"[0.306, 0.255]","[0.066, -0.395]","[-0.377, 0.138]","[0.399, -0.003]","[-0.203, -0.347]","[-0.2, 0.346]","[0.07, 0.393]","[0.304, -0.26]","[-0.378, -0.136]",,16.14509900000121,4.095529900001566,11.178826499999559,"[0.3685185185185185, 0.041666666666666664, -0.337037037037037]","[0.021296296296296296, 0.3111111111111111, 0.07685185185185185]","[1, 1, 1]","[0, 0, 0]","[0, 0, 0]","[4.08809150000161, 11.171142000002874, 16.137698100003036]",0.006748299998434959,16.144340800001373,['A3'],['B1'],['C1'],['blue'],['yellow'],['salmon'],2191.7808705999996,None,10.0,1.3470287999989523,2191.7808705999996,None,2195.6977608999987,None,-0.0,1.8983116999988852,2193.2642911000003,None,-0.0,2.481071800000791,2197.6643495999997,None,10.0,2.2153532999982417,<function functionImportanceC at 0x00000149014C7AE8>,<function functionImportanceA at 0x0000014900FCA7B8>,<function functionImportanceB at 0x00000149014C7510>,,,3.0,3.9477868000030867,-0.0,2.981306099998619,7.0,1.8983116999988852,<function functiondiffA at 0x0000014901D85BF8>,<function functiondiffC at 0x0000014901D85F28>,<function functiondiffB at 0x0000014901D85C80>,,,,,2175.158667599997,2199.8142163999983,None,2202.8141791999988,None,2204.6474106999995,None,005,001,2022_Jun_13_1643,2leo,2021.2.3,60.00294014331605,
3,43,Plan your dream house,Stimuli/43A1.jpg,Stimuli/43A2.jpg,Stimuli/43A3.jpg,Stimuli/43B1.jpg,Stimuli/43B2.jpg,Stimuli/43B3.jpg,Stimuli/43C1.jpg,Stimuli/43C2.jpg,Stimuli/43C3.jpg,,,,,0,36,36,43,,,,,,,,2208.1135289999984,None,2209.1139613999985,None,2215.1138124999998,None,"[0.399, -0.003]","[-0.203, -0.347]","[-0.2, 0.346]","[0.306, 0.255]","[0.066, -0.395]","[-0.377, 0.138]","[0.07, 0.393]","[0.304, -0.26]","[-0.378, -0.136]",,14.945938600001682,15.546183800001018,14.180007999999361,"[-0.34444444444444444, 0.4148148148148148, 0.09444444444444444]","[-0.09259259259259259, -0.05925925925925926, -0.44907407407407407]","[1, 1, 1]","[0, 0, 0]","[0, 0, 0]","[14.171784300000581, 14.938464800001384, 15.5383490000022]",0.0070666999999957625,15.545280000002094,['A1'],['B2'],['C3'],['blue'],['yellow'],['salmon'],2232.2632954,None,10.0,2.3639734999997017,2232.2632954,None,2234.7133030999976,None,9.0,3.0473693999992975,2237.7464895999983,None,10.0,1.8985554999999295,2239.6798606999982,None,6.0,1.4481229999983043,<function functionImportanceA at 0x0000014900222510>,<function functionImportanceC at 0x00000149019DCF28>,<function functionImportanceB at 0x00000149019DCE18>,,,0.0,3.3478950999997323,3.0,3.7811012000020128,5.0,3.0473693999992975,<function functiondiffA at 0x00000149019DCB70>,<function functiondiffC at 0x0000014901D85E18>,<function functiondiffB at 0x00000149019DC730>,,,,,2216.2385386999995,2241.1132771999983,None,2244.9129385999986,None,2246.3463166999973,None,005,001,2022_Jun_13_1643,2leo,2021.2.3,60.00294014331605,
3,25,Plan how you want to read a book in your free time ,Stimuli/25A1.jpg,Stimuli/25A2.jpg,Stimuli/25A3.jpg,Stimuli/25B1.jpg,Stimuli/25B2.jpg,Stimuli/25B3.jpg,Stimuli/25C1.jpg,Stimuli/25C2.jpg,Stimuli/25C3.jpg,,,,,0,37,37,25,,,,,,,,2249.212446999998,None,2250.213082099999,None,2256.212940899997,None,"[0.304, -0.26]","[0.07, 0.393]","[-0.378, -0.136]","[-0.203, -0.347]","[0.399, -0.003]","[-0.2, 0.346]","[0.066, -0.395]","[0.306, 0.255]","[-0.377, 0.138]",,8.642267750001338,4.94264165000277,11.076093750001746,"[-0.17777777777777778, 0.30092592592592593, -0.3]","[-0.3398148148148148, -0.2611111111111111, 0.14166666666666666]","[1, 1, 1]","[0, 0, 0]","[0, 0, 0]","[4.935190100000909, 8.635097800000949, 11.068246100003307]",0.006766150003386429,11.074854050002614,['A1'],['B1'],['C3'],['salmon'],['yellow'],['blue'],2269.2121375999996,None,10.0,1.9134118000001763,2269.2121375999996,None,2278.7120644999995,None,3.0,2.148296700001083,2275.9452996,None,8.0,3.048131799998373,2271.228956499999,None,7.0,4.430963099999644,<function functionImportanceB at 0x0000014901D859D8>,<function functionImportanceC at 0x0000014901D85488>,<function functionImportanceA at 0x00000149019DCC80>,,,-0.0,2.2979524999973364,1.0,3.664488899998105,4.0,2.148296700001083,<function functiondiffB at 0x0000014900BEBBF8>,<function functiondiffC at 0x0000014902260730>,<function functiondiffA at 0x0000014900670598>,,,,,2257.6737231999978,2288.2285921999974,None,2283.2288246999997,None,2280.8619419999995,None,005,001,2022_Jun_13_1643,2leo,2021.2.3,60.00294014331605,
3,4,Plan a game night at your place,Stimuli/4A1.jpg,Stimuli/4A2.jpg,Stimuli/4A3.jpg,Stimuli/4B1.jpg,Stimuli/4B2.jpg,Stimuli/4B3.jpg,Stimuli/4C1.jpg,Stimuli/4C2.jpg,Stimuli/4C3.jpg,,,,,0,38,38,4,,,,,,,,2291.411360299997,None,2292.4120404999994,None,2298.4119876999976,None,"[-0.378, -0.136]","[0.07, 0.393]","[0.304, -0.26]","[-0.377, 0.138]","[0.306, 0.255]","[0.066, -0.395]","[-0.2, 0.346]","[0.399, -0.003]","[-0.203, -0.347]",,19.34028025000225,16.90743585000382,15.49074505000317,"[-0.17407407407407408, -0.3055555555555556, -0.37037037037037035]","[0.31666666666666665, 0.1037037037037037, -0.06944444444444445]","[1, 1, 1]","[0, 0, 0]","[0, 0, 0]","[15.482697199997347, 16.899476599999616, 19.332743799997843]",0.007099150003341492,19.339802550002787,['A1'],['B1'],['C1'],['blue'],['salmon'],['yellow'],2321.5940961999986,None,8.0,4.96301940000194,2321.5940961999986,None,2331.1107687000003,None,4.0,6.848343900001055,2338.3106018,None,8.0,5.881771699998353,2326.5940740999977,None,5.0,3.497735599998123,<function functionImportanceB at 0x00000149022609D8>,<function functionImportanceA at 0x0000014901D85EA0>,<function functionImportanceC at 0x0000014902260158>,,,8.0,2.5809033000005,2.0,2.3315055000020948,7.0,6.848343900001055,<function functiondiffC at 0x0000014901D85598>,<function functiondiffB at 0x0000014901D858C8>,<function functiondiffA at 0x00000149019DCBF8>,,,,,2301.7973230999996,2348.793687899997,None,2343.2270530999995,None,2345.8604400999975,None,005,001,2022_Jun_13_1643,2leo,2021.2.3,60.00294014331605,
3,41,Plan how you want to have dinner tonight ,Stimuli/41A1.jpg,Stimuli/41A2.jpg,Stimuli/41A3.jpg,Stimuli/41B1.jpg,Stimuli/41B2.jpg,Stimuli/41B3.jpg,Stimuli/41C1.jpg,Stimuli/41C2.jpg,Stimuli/41C3.jpg,,,,,0,39,39,41,,,,,,,,2350.309793999997,None,2351.3100489999997,None,2357.3101874999993,None,"[-0.378, -0.136]","[0.304, -0.26]","[0.07, 0.393]","[-0.2, 0.346]","[-0.203, -0.347]","[0.399, -0.003]","[-0.377, 0.138]","[0.066, -0.395]","[0.306, 0.255]",,5.7342993000020215,13.90099530000225,8.468011500001012,"[-0.3333333333333333, 0.2324074074074074, -0.13240740740740742]","[-0.09166666666666666, 0.2175925925925926, 0.2814814814814815]","[1, 1, 1]","[0, 0, 0]","[0, 0, 0]","[5.731929600002331, 8.464935500000138, 13.898309600001085]",0.0019589000003179535,13.899863100003131,['A1'],['B1'],['C3'],['salmon'],['yellow'],['blue'],2373.0260944,None,7.0,2.2300724999986414,2373.0260944,None,2390.2592093999992,None,7.0,7.5981152999993355,2375.5262970000003,None,6.0,4.364682699997502,2379.709555899997,None,8.0,10.481817899999442,<function functionImportanceC at 0x0000014902260510>,<function functionImportanceB at 0x0000014902260598>,<function functionImportanceA at 0x0000014902260488>,,,3.0,4.964487799999915,7.0,2.280998300000647,4.0,7.5981152999993355,<function functiondiffB at 0x0000014901D85840>,<function functiondiffA at 0x00000149014C79D8>,<function functiondiffC at 0x00000149022601E0>,,,,,2358.644295099999,2402.775515899997,None,2405.1087794999985,None,2397.7924203000002,None,005,001,2022_Jun_13_1643,2leo,2021.2.3,60.00294014331605,
3,42,Plan how to draw a painting ,Stimuli/42A1.jpg,Stimuli/42A2.jpg,Stimuli/42A3.jpg,Stimuli/42B1.jpg,Stimuli/42B2.jpg,Stimuli/42B3.jpg,Stimuli/42C1.jpg,Stimuli/42C2.jpg,Stimuli/42C3.jpg,,,,,0,40,40,42,,,,,,,,2406.758284399999,None,2407.758610599998,None,2413.7586484999993,None,"[0.306, 0.255]","[0.066, -0.395]","[-0.377, 0.138]","[0.399, -0.003]","[-0.203, -0.347]","[-0.2, 0.346]","[0.07, 0.393]","[0.304, -0.26]","[-0.378, -0.136]",,13.161596650003048,14.045168850003392,18.245414350003557,"[-0.33425925925925926, 0.36203703703703705, -0.31666666666666665]","[0.11574074074074074, 0.07314814814814814, -0.049074074074074076]","[1, 1, 1]","[0, 0, 0]","[0, 0, 0]","[13.14548669999931, 14.02877190000072, 18.22878530000162]",0.015518350002821535,18.244104850004078,['A3'],['B1'],['C3'],['yellow'],['blue'],['salmon'],2433.7413235999993,None,7.0,2.913568199997826,2433.7413235999993,None,2443.824291099998,None,10.0,1.8820708000021114,2441.5912697999993,None,9.0,2.0484880000003614,2436.724669199997,None,3.0,4.8474869999990915,<function functionImportanceB at 0x0000014902260D08>,<function functionImportanceC at 0x0000014902260378>,<function functionImportanceA at 0x0000014902260BF8>,,,3.0,4.031630999998015,1.0,3.4477293999989342,-0.0,1.8820708000021114,<function functiondiffA at 0x0000014901D85510>,<function functiondiffB at 0x0000014901D856A8>,<function functiondiffC at 0x0000014902260048>,,,,,2415.029204399998,2445.5578215999994,None,2453.0409808000004,None,2448.9910117,None,005,001,2022_Jun_13_1643,2leo,2021.2.3,60.00294014331605,
3,30,Plan your sport work out for tomorrow,Stimuli/30A1.jpg,Stimuli/30A2.jpg,Stimuli/30A3.jpg,Stimuli/30B1.jpg,Stimuli/30B2.jpg,Stimuli/30B3.jpg,Stimuli/30C1.jpg,Stimuli/30C2.jpg,Stimuli/30C3.jpg,,,,,0,41,41,30,,,,,,,,2455.4243352999983,None,2456.424005099998,None,2462.424074999999,None,"[0.306, 0.255]","[0.066, -0.395]","[-0.377, 0.138]","[0.399, -0.003]","[-0.203, -0.347]","[-0.2, 0.346]","[0.07, 0.393]","[0.304, -0.26]","[-0.378, -0.136]",,9.879257100001269,12.445996800001012,6.446444400000473,"[-0.31203703703703706, 0.2657407407407407, 0.41203703703703703]","[-0.08518518518518518, 0.17314814814814813, 0.08055555555555556]","[1, 1, 1]","[0, 0, 0]","[0, 0, 0]","[6.438255900000513, 9.871739499998512, 12.438178399999742]",0.007084400000167079,12.445246100000077,['A1'],['B1'],['C3'],['yellow'],['salmon'],['blue'],2476.5067882000003,None,7.0,1.6134891000001517,2476.5067882000003,None,2486.5567069999997,None,10.0,1.4987384000014572,2488.0734195999976,None,2.0,1.9151487999988603,2478.2402922999972,None,7.0,8.347895200000494,<function functionImportanceB at 0x0000014902260400>,<function functionImportanceA at 0x00000149022600D0>,<function functionImportanceC at 0x0000014902260C80>,,,1.0,4.464206000000559,1.0,4.598067099999753,0.0,1.4987384000014572,<function functiondiffB at 0x0000014902260620>,<function functiondiffA at 0x0000014902260AE8>,<function functiondiffC at 0x0000014901D852F0>,,,,,2463.5828062,2494.4566043999985,None,2499.073038899998,None,2489.9899398999987,None,005,001,2022_Jun_13_1643,2leo,2021.2.3,60.00294014331605,
3,20,Plan a tea party with your friends,Stimuli/20A1.jpg,Stimuli/20A2.jpg,Stimuli/20A3.jpg,Stimuli/20B1.jpg,Stimuli/20B2.jpg,Stimuli/20B3.jpg,Stimuli/20C1.jpg,Stimuli/20C2.jpg,Stimuli/20C3.jpg,,,,,0,42,42,20,,,,,,,,2505.1907632999973,None,2506.2059391999974,None,2512.206019699999,None,"[0.066, -0.395]","[0.306, 0.255]","[-0.377, 0.138]","[-0.203, -0.347]","[0.399, -0.003]","[-0.2, 0.346]","[0.304, -0.26]","[0.07, 0.393]","[-0.378, -0.136]",,11.777281650003715,20.64394605000416,17.8944128500043,"[0.04259259259259259, 0.05277777777777778, -0.18611111111111112]","[-0.40185185185185185, 0.4361111111111111, -0.28888888888888886]","[1, 1, 1]","[0, 0, 0]","[0, 0, 0]","[11.767224700000952, 17.88373219999994, 20.633603700000094]",0.009547750003548572,20.64309155000592,['A1'],['B1'],['C2'],['yellow'],['blue'],['salmon'],2536.855093099999,None,7.0,2.7805182000010973,2536.855093099999,None,2539.721845199998,None,3.0,2.747716499998205,2547.788158299998,None,8.0,2.198731799999223,2544.872111499997,None,1.0,5.314649799998733,<function functionImportanceA at 0x0000014902260840>,<function functionImportanceB at 0x0000014902260EA0>,<function functionImportanceC at 0x00000149026A4730>,,,0.0,4.014313199997559,10.0,4.631066900001315,7.0,2.747716499998205,<function functiondiffB at 0x0000014902260D90>,<function functiondiffC at 0x0000014902260F28>,<function functiondiffA at 0x0000014901D85378>,,,,,2515.7532076999996,2556.471568099998,None,2554.0215723,None,2550.538213599997,None,005,001,2022_Jun_13_1643,2leo,2021.2.3,60.00294014331605,
3,37,Plan your cleaning routine ,Stimuli/37A1.jpg,Stimuli/37A2.jpg,Stimuli/37A3.jpg,Stimuli/37B1.jpg,Stimuli/37B2.jpg,Stimuli/37B3.jpg,Stimuli/37C1.jpg,Stimuli/37C2.jpg,Stimuli/37C3.jpg,,,,,0,43,43,37,,,,,,,,2560.6211084999995,None,2561.621307899997,None,2567.6212030999995,None,"[-0.203, -0.347]","[0.399, -0.003]","[-0.2, 0.346]","[0.066, -0.395]","[0.306, 0.255]","[-0.377, 0.138]","[0.304, -0.26]","[0.07, 0.393]","[-0.378, -0.136]",,25.466788150002685,13.453294650000316,23.45061165000152,"[0.22870370370370371, 0.2972222222222222, 0.4074074074074074]","[0.1962962962962963, -0.3055555555555556, -0.030555555555555555]","[1, 1, 1]","[0, 0, 0]","[0, 0, 0]","[13.449976900003094, 23.448761400002695, 25.465445600002568]",0.0008171500012394972,25.466010250002,['A2'],['B2'],['C1'],['blue'],['yellow'],['salmon'],2594.6869595999997,None,8.0,3.413360400001693,2594.6869595999997,None,2604.3199996000003,None,10.0,1.8483902999978454,2598.1537632,None,1.0,6.131035400001565,2606.2366636999977,None,7.0,2.915055500001472,<function functionImportanceC at 0x00000149026A4268>,<function functionImportanceA at 0x0000014902260950>,<function functionImportanceB at 0x00000149026A4C80>,,,1.0,2.6311131000002206,5.0,4.397409000001062,9.0,1.8483902999978454,<function functiondiffA at 0x0000014902260A60>,<function functiondiffC at 0x00000149026A4840>,<function functiondiffB at 0x00000149022608C8>,,,,,2568.736633999997,2609.0867953999987,None,2613.503376299999,None,2615.7033239999982,None,005,001,2022_Jun_13_1643,2leo,2021.2.3,60.00294014331605,
3,17,Plan a day in Barcelona with a friend who is new to the city,Stimuli/17A1.jpg,Stimuli/17A2.jpg,Stimuli/17A3.jpg,Stimuli/17B1.jpg,Stimuli/17B2.jpg,Stimuli/17B3.jpg,Stimuli/17C1.jpg,Stimuli/17C2.jpg,Stimuli/17C3.jpg,,,,,0,44,44,17,,,,,,,,2617.853354499999,None,2618.853253899997,None,2624.853210699999,None,"[0.306, 0.255]","[0.066, -0.395]","[-0.377, 0.138]","[0.399, -0.003]","[-0.203, -0.347]","[-0.2, 0.346]","[0.07, 0.393]","[0.304, -0.26]","[-0.378, -0.136]",,7.66246255000442,12.845871249999618,3.9131009499978973,"[0.2657407407407407, -0.41574074074074074, -0.19907407407407407]","[-0.2064814814814815, 0.10740740740740741, -0.28055555555555556]","[1, 1, 1]","[0, 0, 0]","[0, 0, 0]","[3.905047899999772, 7.6548353000034695, 12.838071300000593]",0.0069449500006157905,12.844896050002717,['A3'],['B2'],['C2'],['blue'],['yellow'],['salmon'],2639.3192655999956,None,10.0,2.780345099999977,2639.3192655999956,None,2642.2026924999955,None,10.0,4.014675999998872,2648.2858706999978,None,9.0,2.4154160999969463,2646.2025024999966,None,7.0,2.0649255999960587,<function functionImportanceA at 0x00000149026A4D08>,<function functionImportanceB at 0x00000149026A4F28>,<function functionImportanceC at 0x00000149026A4510>,,,-0.0,9.69735679999576,6.0,2.231139000003168,0.0,4.014675999998872,<function functiondiffB at 0x0000014902260B70>,<function functiondiffC at 0x00000149026A47B8>,<function functiondiffA at 0x0000014902260268>,,,,,2625.9956543000008,2668.2686087999973,None,2660.385570599996,None,2650.685640099997,None,005,001,2022_Jun_13_1643,2leo,2021.2.3,60.00294014331605,
