Condition,N_Scenario,written_scenario,ImageA1,ImageA2,ImageA3,ImageB1,ImageB2,ImageB3,ImageC1,ImageC2,ImageC3,trials_2.thisRepN,trials_2.thisTrialN,trials_2.thisN,trials_2.thisIndex,trial.thisRepN,trial.thisTrialN,trial.thisN,trial.thisIndex,button_2.started,button_2.stopped,button_2.numClicks,button_2.timesOn,button_2.timesOff,text.started,text.stopped,fixationcross1_started,fixationcross1_stopped,Scenario_started,Scenario_stopped,fixationcross2_started,fixationcross2_stopped,A1pos,A2pos,A3pos,B1pos,B2pos,B3pos,C1pos,C2pos,C3pos,﻿Imagesdecision_started,decisiontimeA,decisiontimeB,decisiontimeC,mouse_x,mouse_y,mouse_leftButton,mouse_midButton,mouse_rightButton,mouse_time,mouse_started,mouse_stopped,clicked_optionA,clicked_optionB,clicked_optionC,colour_category_A,colour_category_B,colour_category_C,question_confidence_started,question_confidence_stopped,slider_confidence_response,slider_confidence_rt,slider_confidence_started,slider_confidence_stopped,question_valueA_started,question_valueA_stopped,slider_valueA_response,slider_valueA_rt,question_valueB_started,question_valueB_stopped,slider_valueB_response,slider_valueB_rt,question_valueC_started,question_valueC_stopped,slider_valueC_response,slider_valueC_rt,Importance_First,Importance_Second,Importance_Third,question_diff_started,question_diff_stopped,slider_diffA_response,slider_diffA_rt,slider_diffC_response,slider_diffC_rt,slider_diffB_response,slider_diffB_rt,diff_First,diff_Second,diff_Third,button_3_started,button_3_stopped,text_2_started,text_2_stopped,Imagesdecision_started,question_diffA_started,question_diffA_stopped,question_diffB_started,question_diffB_stopped,question_diffC_started,question_diffC_stopped,participant,session,date,expName,psychopyVersion,frameRate,
3,2,Plan a party to celebrate your birthday,Stimuli/2A1t.jpg,Stimuli/2A2t.jpg,Stimuli/2A3t.jpg,Stimuli/2B1t.jpg,Stimuli/2B2t.jpg,Stimuli/2B3t.jpg,Stimuli/2C1t.jpg,Stimuli/2C2t.jpg,Stimuli/2C3t.jpg,0,0,0,0,,,,,23.03725680000025,None,1,[8.796860899999956],[8.796864200000527],23.03725680000025,None,91.41186759999982,None,92.42159629999969,None,98.42104269999982,None,"[-0.377, 0.138]","[0.066, -0.395]","[0.306, 0.255]","[-0.378, -0.136]","[0.304, -0.26]","[0.07, 0.393]","[-0.2, 0.346]","[-0.203, -0.347]","[0.399, -0.003]",102.42450350000036,6.534116540002287,38.78380894000293,33.03388584000277,"[-0.34814814814814815, -0.3712962962962963, 0.34074074074074073, 0.07777777777777778]","[0.0787037037037037, 0.09722222222222222, -0.03333333333333333, 0.3675925925925926]","[1, 1, 1, 1]","[0, 0, 0, 0]","[0, 0, 0, 0]","[6.525907400000506, 10.759157800000139, 33.02500380000038, 38.775175700000545]",0.007800040002621245,38.78270894000252,['A1'],['B3'],['C3'],['salmon'],['blue'],['yellow'],141.66970049999964,None,6.0,4.529925299999377,141.66970049999964,None,147.55317639999976,None,10.0,6.914350000000013,154.78626059999988,None,5.0,5.814737900000182,159.05529969999952,None,8.0,1.764979499999754,<function functionImportanceAt at 0x000001E494A04D08>,<function functionImportanceBt at 0x000001E4A3FF0840>,<function functionImportanceCt at 0x000001E4A3FF0E18>,168.4192624999996,None,10.0,6.914350000000013,-0.0,2.9482293999999456,5.0,4.347077600000375,<function functiondiffAt at 0x000001E4A4DFDBF8>,<function functiondiffCt at 0x000001E4A4DFDEA0>,<function functiondiffBt at 0x000001E4A4DFDF28>,,,,,,,,,,,,002,001,2022_Jun_13_1033,2leo,2021.2.3,59.99232098282447,
3,3,Plan one week of vacation,Stimuli/3A1t.jpg,Stimuli/3A2t.jpg,Stimuli/3A3t.jpg,Stimuli/3B1t.jpg,Stimuli/3B2t.jpg,Stimuli/3B3t.jpg,Stimuli/3C1t.jpg,Stimuli/3C2t.jpg,Stimuli/3C3t.jpg,0,1,1,1,,,,,,,,,,,,171.83574169999974,None,172.8359134000002,None,178.83576679999987,None,"[-0.2, 0.346]","[0.399, -0.003]","[-0.203, -0.347]","[-0.377, 0.138]","[0.306, 0.255]","[0.066, -0.395]","[-0.378, -0.136]","[0.07, 0.393]","[0.304, -0.26]",184.94013199999972,14.9777965400026,11.961554340003204,10.31182894000267,"[-0.3037037037037037, -0.3037037037037037, 0.42407407407407405]","[-0.0962962962962963, 0.11481481481481481, 0.016666666666666666]","[1, 1, 1]","[0, 0, 0]","[0, 0, 0]","[10.294941899999685, 11.944910999999593, 14.961343199999646]",0.015963040003043716,14.97712524000326,['A2'],['B1'],['C1'],['yellow'],['blue'],['salmon'],200.36806549999983,None,10.0,1.8476903000000675,200.36806549999983,None,204.1851713999995,None,10.0,5.614573100000598,209.60147450000022,None,10.0,3.3320545999995375,212.71783679999953,None,8.0,5.098422399999436,<function functionImportanceAt at 0x000001E4A3FF0598>,<function functionImportanceBt at 0x000001E4A3FF0EA0>,<function functionImportanceCt at 0x000001E4921920D0>,225.16797529999985,None,-0.0,5.614573100000598,5.0,4.147829900000033,0.0,3.964427899999464,<function functiondiffBt at 0x000001E4A4DFD840>,<function functiondiffCt at 0x000001E4A4DFDD90>,<function functiondiffAt at 0x000001E4A4DFDC80>,,,,,,,,,,,,002,001,2022_Jun_13_1033,2leo,2021.2.3,59.99232098282447,
3,21,Plan your sandwich for lunch,Stimuli/21A1.jpg,Stimuli/21A2.jpg,Stimuli/21A3.jpg,Stimuli/21B1.jpg,Stimuli/21B2.jpg,Stimuli/21B3.jpg,Stimuli/21C1.jpg,Stimuli/21C2.jpg,Stimuli/21C3.jpg,,,,,0,0,0,21,,,,,,,,271.5440212000003,None,272.5331368999996,None,278.53291460000037,None,"[-0.378, -0.136]","[0.07, 0.393]","[0.304, -0.26]","[-0.2, 0.346]","[0.399, -0.003]","[-0.203, -0.347]","[-0.377, 0.138]","[0.306, 0.255]","[0.066, -0.395]",,17.666487380001854,14.833552380001493,9.968551380001372,"[-0.362962962962963, -0.1648148148148148, 0.0824074074074074]","[0.08888888888888889, -0.30185185185185187, 0.3055555555555556]","[1, 1, 1]","[0, 0, 0]","[0, 0, 0]","[9.958241199999975, 14.823418899999524, 17.656686499998614]",0.009270480000850512,17.66580148000139,['A2'],['B3'],['C1'],['blue'],['salmon'],['yellow'],297.8490067999992,None,8.0,2.629231900000377,297.8490067999992,None,304.71674449999955,None,10.0,1.731544299998859,306.4322118,None,10.0,1.3150944000008167,300.58248079999976,None,10.0,4.0816057000010915,<function functionImportanceC at 0x000001E4A3EB1D90>,<function functionImportanceA at 0x000001E4A3FF0D08>,<function functionImportanceB at 0x000001E4A4DFD598>,,,-0.0,3.1642479999991338,10.0,1.731544299998859,0.0,2.830840200000239,<function functiondiffA at 0x000001E4A4DFD0D0>,<function functiondiffB at 0x000001E4A4DFD8C8>,<function functiondiffC at 0x000001E4A4DFD268>,227.53434709999965,None,227.53434709999965,None,279.70596300000034,307.69879709999987,None,310.8840001999997,None,313.71541740000066,None,002,001,2022_Jun_13_1033,2leo,2021.2.3,59.99232098282447,
3,15,Plan your own Pasta for lunch,Stimuli/15A1.jpg,Stimuli/15A2.jpg,Stimuli/15A3.jpg,Stimuli/15B1.jpg,Stimuli/15B2.jpg,Stimuli/15B3.jpg,Stimuli/15C1.jpg,Stimuli/15C2.jpg,Stimuli/15C3.jpg,,,,,0,1,1,15,,,,,,,,315.3819989000003,None,316.38196640000024,None,322.3819394000002,None,"[0.07, 0.393]","[0.304, -0.26]","[-0.378, -0.136]","[0.306, 0.255]","[0.066, -0.395]","[-0.377, 0.138]","[0.399, -0.003]","[-0.203, -0.347]","[-0.2, 0.346]",,14.936774140000125,18.28703654000128,10.670758140000544,"[-0.20555555555555555, 0.007407407407407408, 0.06944444444444445]","[0.32314814814814813, 0.35833333333333334, -0.45555555555555555]","[1, 1, 1]","[0, 0, 0]","[0, 0, 0]","[10.663137100000313, 14.929860700000063, 18.279768799999147]",0.006501240000943653,18.286060239999642,['A1'],['B2'],['C3'],['yellow'],['blue'],['salmon'],343.0309314999995,None,10.0,1.6131815999997343,343.0309314999995,None,347.7811500000007,None,5.0,3.364932800001043,344.6978626,None,10.0,2.980653099999472,351.79753849999906,None,10.0,2.248491500000455,<function functionImportanceB at 0x000001E4A4DFD2F0>,<function functionImportanceA at 0x000001E4A4DFD400>,<function functionImportanceC at 0x000001E4A3FA5D90>,,,5.0,2.5478462999999465,0.0,3.364932800001043,0.0,2.764389400001164,<function functiondiffB at 0x000001E4A4DFD950>,<function functiondiffA at 0x000001E4A13C2E18>,<function functiondiffC at 0x000001E4A3FA59D8>,,,,,324.2818148999995,356.11425079999935,None,353.3309886999996,None,358.83097219999945,None,002,001,2022_Jun_13_1033,2leo,2021.2.3,59.99232098282447,
3,16,Plan a delicious cake for the birthday of a friend,Stimuli/16A1.jpg,Stimuli/16A2.jpg,Stimuli/16A3.jpg,Stimuli/16B1.jpg,Stimuli/16B2.jpg,Stimuli/16B3.jpg,Stimuli/16C1.jpg,Stimuli/16C2.jpg,Stimuli/16C3.jpg,,,,,0,2,2,16,,,,,,,,362.91410240000005,None,363.9140093999995,None,369.9140093999995,None,"[0.399, -0.003]","[-0.2, 0.346]","[-0.203, -0.347]","[0.07, 0.393]","[-0.378, -0.136]","[0.304, -0.26]","[0.306, 0.255]","[-0.377, 0.138]","[0.066, -0.395]",,15.34241528000166,7.059340380001231,25.759358880000946,"[0.021296296296296296, -0.1388888888888889, -0.32407407407407407]","[0.3648148148148148, 0.29444444444444445, 0.10740740740740741]","[1, 1, 1]","[0, 0, 0]","[0, 0, 0]","[7.0435133000009955, 15.326727800000299, 25.74317880000126]",0.015154480001001502,25.75815808000152,['A2'],['B1'],['C2'],['blue'],['yellow'],['salmon'],397.56294479999997,None,6.0,2.080415599999469,397.56294479999997,None,403.4462120999997,None,10.0,2.3650691999991977,406.0463435999991,None,7.0,4.165079500000502,399.81300700000065,None,-0.0,3.7146372000006522,<function functionImportanceC at 0x000001E4A3FA5048>,<function functionImportanceA at 0x000001E4A3FA5840>,<function functionImportanceB at 0x000001E4A3FA5158>,,,6.0,3.5481141000000207,0.0,2.3650691999991977,5.0,4.06422609999936,<function functiondiffC at 0x000001E4A3FA5EA0>,<function functiondiffA at 0x000001E4A13A28C8>,<function functiondiffB at 0x000001E4A3FF0D90>,,,,,371.3356578999992,413.17932219999966,None,416.7961073999995,None,409.9962018999995,None,002,001,2022_Jun_13_1033,2leo,2021.2.3,59.99232098282447,
3,18,Plan your Saturday night ,Stimuli/18A1.jpg,Stimuli/18A2.jpg,Stimuli/18A3.jpg,Stimuli/18B1.jpg,Stimuli/18B2.jpg,Stimuli/18B3.jpg,Stimuli/18C1.jpg,Stimuli/18C2.jpg,Stimuli/18C3.jpg,,,,,0,3,3,18,,,,,,,,420.329248,None,421.3290956000001,None,427.3291969999991,None,"[0.306, 0.255]","[0.066, -0.395]","[-0.377, 0.138]","[0.07, 0.393]","[0.304, -0.26]","[-0.378, -0.136]","[0.399, -0.003]","[-0.203, -0.347]","[-0.2, 0.346]",,20.56608605999827,24.315088559998912,14.299285359998976,"[-0.16203703703703703, -0.3101851851851852, 0.2796296296296296]","[0.2898148148148148, 0.11666666666666667, -0.23796296296296296]","[1, 1, 1]","[0, 0, 0]","[0, 0, 0]","[14.281634799999665, 20.54894729999978, 24.297754899998836]",0.016558959998292266,24.3141853599991,['A3'],['B2'],['C3'],['salmon'],['blue'],['yellow'],453.2116310000001,None,3.0,2.997501199999533,453.2116310000001,None,456.2783612000003,None,10.0,2.8965621999996074,462.59470839999994,None,10.0,2.2322091000005457,459.2114211999997,None,4.0,3.4149658999995154,<function functionImportanceA at 0x000001E4A3FA57B8>,<function functionImportanceC at 0x000001E4A3FA5730>,<function functionImportanceB at 0x000001E4A3FA5488>,,,10.0,3.464258299998619,0.0,2.8965621999996074,10.0,2.164254400000573,<function functiondiffA at 0x000001E4A3FA5E18>,<function functiondiffB at 0x000001E4A4DFD9D8>,<function functiondiffC at 0x000001E4A4DFD048>,,,,,428.4292896999996,464.8447639999995,None,468.3110704999999,None,470.5111971000006,None,002,001,2022_Jun_13_1033,2leo,2021.2.3,59.99232098282447,
3,13,Plan a romantic date this weekend,Stimuli/13A1.jpg,Stimuli/13A2.jpg,Stimuli/13A3.jpg,Stimuli/13B1.jpg,Stimuli/13B2.jpg,Stimuli/13B3.jpg,Stimuli/13C1.jpg,Stimuli/13C2.jpg,Stimuli/13C3.jpg,,,,,0,4,4,13,,,,,,,,472.47785230000045,None,473.47767960000056,None,479.47796200000084,None,"[0.306, 0.255]","[-0.377, 0.138]","[0.066, -0.395]","[0.399, -0.003]","[-0.2, 0.346]","[-0.203, -0.347]","[0.07, 0.393]","[-0.378, -0.136]","[0.304, -0.26]",,8.226245959998778,26.95979645999978,13.476489959999526,"[-0.36666666666666664, 0.041666666666666664, -0.16111111111111112]","[0.07777777777777778, 0.3787037037037037, -0.2638888888888889]","[1, 1, 1]","[0, 0, 0]","[0, 0, 0]","[8.211607999999615, 13.4614160000001, 26.94476140000006]",0.014090859998759697,26.958333360000324,['A2'],['B3'],['C1'],['salmon'],['yellow'],['blue'],508.09348169999976,None,7.0,2.246143700000175,508.09348169999976,None,510.42693540000073,None,10.0,3.8137728000001516,514.2934501,None,5.0,4.064963699998771,518.3268373999999,None,10.0,2.748413499999515,<function functionImportanceA at 0x000001E4A3FA58C8>,<function functionImportanceB at 0x000001E4A510A6A8>,<function functionImportanceC at 0x000001E4A510A598>,,,4.0,6.01431120000052,-0.0,3.8137728000001516,4.0,4.16438670000025,<function functiondiffB at 0x000001E4A3FA5C80>,<function functiondiffA at 0x000001E4A4DFD1E0>,<function functiondiffC at 0x000001E4A3FA5950>,,,,,480.6647849000001,525.2431890999997,None,521.0767238999997,None,531.2764637,None,002,001,2022_Jun_13_1033,2leo,2021.2.3,59.99232098282447,
3,44,Plan a party at your place,Stimuli/44A1.jpg,Stimuli/44A2.jpg,Stimuli/44A3.jpg,Stimuli/44B1.jpg,Stimuli/44B2.jpg,Stimuli/44B3.jpg,Stimuli/44C1.jpg,Stimuli/44C2.jpg,Stimuli/44C3.jpg,,,,,0,5,5,44,,,,,,,,535.0596194999998,None,536.0595529000002,None,542.0596643000008,None,"[-0.203, -0.347]","[0.399, -0.003]","[-0.2, 0.346]","[0.304, -0.26]","[0.07, 0.393]","[-0.378, -0.136]","[0.066, -0.395]","[0.306, 0.255]","[-0.377, 0.138]",,28.034728059998088,7.235613959997863,16.03519075999793,"[-0.3648148148148148, 0.03148148148148148, -0.2064814814814815]","[-0.10740740740740741, -0.3787037037037037, 0.4046296296296296]","[1, 1, 1]","[0, 0, 0]","[0, 0, 0]","[7.233217100001639, 16.032775700001366, 28.032669900001565]",0.0014654599981440697,28.033769759998904,['A3'],['B3'],['C1'],['yellow'],['blue'],['salmon'],571.6916794000008,None,5.0,2.5968588999985514,571.6916794000008,None,574.3419809000006,None,10.0,2.5308938000016497,579.3251041000003,None,10.0,1.8650637999999162,576.9085063000002,None,10.0,2.3983852000001207,<function functionImportanceA at 0x000001E4A510AD90>,<function functionImportanceC at 0x000001E4A510A730>,<function functionImportanceB at 0x000001E4A510AD08>,,,10.0,4.464518899998438,5.0,2.5308938000016497,0.0,2.0811942999989697,<function functiondiffA at 0x000001E4A3FA5D08>,<function functiondiffB at 0x000001E4A3FA5620>,<function functiondiffC at 0x000001E4A510AAE8>,,,,,543.1748031000006,581.1749275999991,None,585.6583658,None,587.7582569999995,None,002,001,2022_Jun_13_1033,2leo,2021.2.3,59.99232098282447,
3,43,Plan your dream house,Stimuli/43A1.jpg,Stimuli/43A2.jpg,Stimuli/43A3.jpg,Stimuli/43B1.jpg,Stimuli/43B2.jpg,Stimuli/43B3.jpg,Stimuli/43C1.jpg,Stimuli/43C2.jpg,Stimuli/43C3.jpg,,,,,0,6,6,43,,,,,,,,589.8081402000007,None,590.8079901000001,None,596.8079718999998,None,"[-0.377, 0.138]","[0.306, 0.255]","[0.066, -0.395]","[-0.378, -0.136]","[0.07, 0.393]","[0.304, -0.26]","[-0.2, 0.346]","[0.399, -0.003]","[-0.203, -0.347]",,13.17260964000161,4.589878240001781,20.673072840001623,"[0.04814814814814815, -0.33240740740740743, -0.21481481481481482]","[0.38425925925925924, 0.1037037037037037, -0.31666666666666665]","[1, 1, 1]","[0, 0, 0]","[0, 0, 0]","[4.585257700000511, 13.168400700000348, 20.668191300001126]",0.003807640001468826,20.671836440002153,['A1'],['B2'],['C3'],['yellow'],['salmon'],['blue'],619.0904819000007,None,7.0,2.4308383999996295,619.0904819000007,None,621.6072752,None,10.0,2.1476770999997825,623.7406888000005,None,7.0,2.615151199999673,626.3737275000003,None,10.0,1.9315450000012788,<function functionImportanceA at 0x000001E4A510A378>,<function functionImportanceB at 0x000001E4A510A400>,<function functionImportanceC at 0x000001E4A510A840>,,,0.0,3.1143871000003855,8.0,2.1476770999997825,0.0,3.0808363999985886,<function functiondiffA at 0x000001E4A510AEA0>,<function functiondiffB at 0x000001E4A510A510>,<function functiondiffC at 0x000001E4A510A9D8>,,,,,597.9371453999993,628.3071760999992,None,631.4404250000007,None,634.5403800999993,None,002,001,2022_Jun_13_1033,2leo,2021.2.3,59.99232098282447,
3,12,Plan the ingredients to mix yourself a cocktail,Stimuli/12A1.jpg,Stimuli/12A2.jpg,Stimuli/12A3.jpg,Stimuli/12B1.jpg,Stimuli/12B2.jpg,Stimuli/12B3.jpg,Stimuli/12C1.jpg,Stimuli/12C2.jpg,Stimuli/12C3.jpg,,,,,0,7,7,12,,,,,,,,637.5569307000005,None,638.5567517,None,644.5566667000003,None,"[0.306, 0.255]","[-0.377, 0.138]","[0.066, -0.395]","[0.07, 0.393]","[-0.378, -0.136]","[0.304, -0.26]","[0.399, -0.003]","[-0.2, 0.346]","[-0.203, -0.347]",,28.133696339999005,10.934461540000484,19.901003839999248,"[-0.36666666666666664, -0.21203703703703702, -0.3055555555555556]","[-0.07962962962962963, -0.2833333333333333, 0.09074074074074075]","[1, 1, 1]","[0, 0, 0]","[0, 0, 0]","[10.924277000000075, 19.890452400000868, 28.12379300000066]",0.00939354000001913,28.132961039998918,['A2'],['B2'],['C3'],['yellow'],['salmon'],['blue'],674.2890900999992,None,0.0,2.313963099999455,674.2890900999992,None,676.6892750999996,None,5.0,4.097340099999201,680.7891053000003,None,7.0,3.2652078999999503,684.0555831999991,None,10.0,1.765234500000588,<function functionImportanceA at 0x000001E4A510A268>,<function functionImportanceB at 0x000001E4A510A950>,<function functionImportanceC at 0x000001E4A3FA5F28>,,,10.0,1.6317314999996597,7.0,4.097340099999201,3.0,4.781777799998963,<function functiondiffB at 0x000001E4A510A048>,<function functiondiffC at 0x000001E4A12FDE18>,<function functiondiffA at 0x000001E4A4DFDD08>,,,,,645.6807423999999,693.4721325999999,None,685.8222227000006,None,690.6221557999997,None,002,001,2022_Jun_13_1033,2leo,2021.2.3,59.99232098282447,
3,17,Plan a day in Barcelona with a friend who is new to the city,Stimuli/17A1.jpg,Stimuli/17A2.jpg,Stimuli/17A3.jpg,Stimuli/17B1.jpg,Stimuli/17B2.jpg,Stimuli/17B3.jpg,Stimuli/17C1.jpg,Stimuli/17C2.jpg,Stimuli/17C3.jpg,,,,,0,8,8,17,,,,,,,,694.6220931999997,None,695.6220639999992,None,701.6220831999999,None,"[0.304, -0.26]","[-0.378, -0.136]","[0.07, 0.393]","[0.066, -0.395]","[-0.377, 0.138]","[0.306, 0.255]","[-0.203, -0.347]","[-0.2, 0.346]","[0.399, -0.003]",,9.989856419997523,2.2903208199986693,18.006958919997487,"[-0.3175925925925926, 0.09814814814814815, -0.1675925925925926]","[0.058333333333333334, 0.3814814814814815, -0.2953703703703704]","[1, 1, 1]","[0, 0, 0]","[0, 0, 0]","[2.2854823999987275, 9.985234699999637, 18.00199949999842]",0.004036819998873398,18.005796219998956,['A3'],['B2'],['C1'],['blue'],['yellow'],['salmon'],721.2546500000008,None,7.0,2.163861500001076,721.2546500000008,None,728.4711564000008,None,10.0,2.1150616999984777,723.4879488000006,None,0.0,2.4476751999991393,725.9558772,None,10.0,2.4652778999989096,<function functionImportanceB at 0x000001E4A3FA5378>,<function functionImportanceC at 0x000001E4A510A158>,<function functionImportanceA at 0x000001E4A3FA5A60>,,,10.0,3.4644274999991467,10.0,2.1150616999984777,0.0,2.047711999999592,<function functiondiffA at 0x000001E4A510A7B8>,<function functiondiffB at 0x000001E4A510ABF8>,<function functiondiffC at 0x000001E4A56E72F0>,,,,,702.7681229999998,730.5379080999992,None,734.0209651999994,None,736.071095199999,None,002,001,2022_Jun_13_1033,2leo,2021.2.3,59.99232098282447,
3,35,Plan how you want to do your grocery shopping ,Stimuli/35A1.jpg,Stimuli/35A2.jpg,Stimuli/35A3.jpg,Stimuli/35B1.jpg,Stimuli/35B2.jpg,Stimuli/35B3.jpg,Stimuli/35C1.jpg,Stimuli/35C2.jpg,Stimuli/35C3.jpg,,,,,0,9,9,35,,,,,,,,737.9541625999991,None,738.9542012000002,None,744.9542258999991,None,"[-0.378, -0.136]","[0.304, -0.26]","[0.07, 0.393]","[-0.377, 0.138]","[0.066, -0.395]","[0.306, 0.255]","[-0.2, 0.346]","[-0.203, -0.347]","[0.399, -0.003]",,18.067372339999565,27.41789943999902,4.418187639999815,"[-0.1685185185185185, 0.2796296296296296, 0.29259259259259257]","[0.3074074074074074, -0.20555555555555555, 0.3074074074074074]","[1, 1, 1]","[0, 0, 0]","[0, 0, 0]","[4.407337700000426, 18.056879800000388, 27.406965800000762]",0.00993313999970269,27.41664223999942,['A2'],['B3'],['C1'],['salmon'],['yellow'],['blue'],774.0697443999998,None,4.0,3.1782581000006758,774.0697443999998,None,779.3865858999998,None,10.0,1.9322221000002173,777.3696756000008,None,10.0,2.048095699999976,781.3031546000002,None,3.0,1.9153769999993528,<function functionImportanceB at 0x000001E4A510A0D0>,<function functionImportanceA at 0x000001E4A510AF28>,<function functionImportanceC at 0x000001E4A510AB70>,,,10.0,2.3635104000004503,-0.0,1.9322221000002173,10.0,2.0143258000007336,<function functiondiffA at 0x000001E4A510A488>,<function functiondiffB at 0x000001E4A510A8C8>,<function functiondiffC at 0x000001E4A510AE18>,,,,,746.1628067000001,783.2198002000005,None,785.6198242999999,None,787.6363302999998,None,002,001,2022_Jun_13_1033,2leo,2021.2.3,59.99232098282447,
3,3,Plan a movie night with a friend,Stimuli/3A1.jpg,Stimuli/3A2.jpg,Stimuli/3A3.jpg,Stimuli/3B1.jpg,Stimuli/3B2.jpg,Stimuli/3B3.jpg,Stimuli/3C1.jpg,Stimuli/3C2.jpg,Stimuli/3C3.jpg,,,,,0,10,10,3,,,,,,,,789.2862060999996,None,790.2860768999999,None,796.2861047999995,None,"[0.399, -0.003]","[-0.2, 0.346]","[-0.203, -0.347]","[0.306, 0.255]","[-0.377, 0.138]","[0.066, -0.395]","[0.07, 0.393]","[-0.378, -0.136]","[0.304, -0.26]",,9.338919960002386,3.5396368600013375,11.85625366000204,"[0.0787037037037037, -0.1814814814814815, -0.31851851851851853]","[-0.3287037037037037, 0.2796296296296296, -0.08796296296296297]","[1, 1, 1]","[0, 0, 0]","[0, 0, 0]","[3.5308298999989347, 9.330481499999223, 11.847330299999157]",0.007924560002720682,11.854796260002331,['A2'],['B3'],['C2'],['blue'],['yellow'],['salmon'],812.1689019000005,None,10.0,1.9634180000011838,812.1689019000005,None,818.6187704999993,None,8.0,3.298715599999923,814.9404531,None,10.0,4.397873100000652,823.6518701000005,None,6.0,3.815491100000145,<function functionImportanceB at 0x000001E4A56E7510>,<function functionImportanceA at 0x000001E4A56E7BF8>,<function functionImportanceC at 0x000001E4A56E7488>,,,0.0,2.880921199999648,0.0,3.298715599999923,-0.0,2.681076300001223,<function functiondiffA at 0x000001E4A510A2F0>,<function functiondiffC at 0x000001E4A56E7730>,<function functiondiffB at 0x000001E4A510A620>,,,,,799.8546313000006,825.7353213999995,None,831.7518357999998,None,829.0018220999991,None,002,001,2022_Jun_13_1033,2leo,2021.2.3,59.99232098282447,
3,38,Plan how you want to go for a run,Stimuli/38A1.jpg,Stimuli/38A2.jpg,Stimuli/38A3.jpg,Stimuli/38B1.jpg,Stimuli/38B2.jpg,Stimuli/38B3.jpg,Stimuli/38C1.jpg,Stimuli/38C2.jpg,Stimuli/38C3.jpg,,,,,0,11,11,38,,,,,,,,833.5516533999999,None,834.5515935999993,None,840.5516914,None,"[-0.203, -0.347]","[0.399, -0.003]","[-0.2, 0.346]","[0.304, -0.26]","[0.07, 0.393]","[-0.378, -0.136]","[0.066, -0.395]","[0.306, 0.255]","[-0.377, 0.138]",,6.687881119998565,8.587724719998732,2.871143819998906,"[0.04722222222222222, -0.15833333333333333, -0.3537037037037037]","[-0.34814814814814815, -0.32222222222222224, -0.17037037037037037]","[1, 1, 1]","[0, 0, 0]","[0, 0, 0]","[2.858759900000223, 6.6760430000013, 8.575445700000273]",0.01144221999857109,8.586574419998215,['A1'],['B3'],['C1'],['blue'],['yellow'],['salmon'],850.8344070999992,None,8.0,1.9972969999998895,850.8344070999992,None,855.3845529999999,None,10.0,2.44832900000074,852.9346946000005,None,10.0,2.4645237999993697,857.9678112000001,None,10.0,1.615024099999573,<function functionImportanceB at 0x000001E4A56E7A60>,<function functionImportanceA at 0x000001E4A56E76A8>,<function functionImportanceC at 0x000001E4A56E7C80>,,,0.0,2.997656100000313,-0.0,2.44832900000074,0.0,2.4984709000000294,<function functiondiffA at 0x000001E4A3FA5598>,<function functiondiffC at 0x000001E4A510A1E0>,<function functiondiffB at 0x000001E4A3FA5B70>,,,,,841.7757865000003,859.4510869000005,None,864.1344064000004,None,862.4844658999991,None,002,001,2022_Jun_13_1033,2leo,2021.2.3,59.99232098282447,
3,19,Plan how you want your garden to look like,Stimuli/19A1.jpg,Stimuli/19A2.jpg,Stimuli/19A3.jpg,Stimuli/19B1.jpg,Stimuli/19B2.jpg,Stimuli/19B3.jpg,Stimuli/19C1.jpg,Stimuli/19C2.jpg,Stimuli/19C3.jpg,,,,,0,12,12,19,,,,,,,,866.1509351999994,None,867.1508644999994,None,873.1510625999999,None,"[0.306, 0.255]","[-0.377, 0.138]","[0.066, -0.395]","[0.399, -0.003]","[-0.2, 0.346]","[-0.203, -0.347]","[0.07, 0.393]","[-0.378, -0.136]","[0.304, -0.26]",,7.006890400001794,10.743228800001816,4.324257200001739,"[-0.35, 0.31851851851851853, -0.20277777777777778]","[-0.075, 0.275, 0.35]","[1, 1, 1]","[0, 0, 0]","[0, 0, 0]","[4.322628400001122, 7.005904400000873, 10.740258199999516]",0.0005861000026925467,10.740238300002602,['A1'],['B2'],['C2'],['yellow'],['blue'],['salmon'],888.0000115000003,None,10.0,1.9267314999997325,888.0000115000003,None,897.7668907999996,None,10.0,1.4819642000002204,894.5500797999994,None,7.0,4.298766500000056,891.3669979999995,None,10.0,3.4308940999999322,<function functionImportanceC at 0x000001E4A56E7F28>,<function functionImportanceB at 0x000001E4A56E7950>,<function functionImportanceA at 0x000001E4A56E7598>,,,-0.0,3.0478550999996514,0.0,1.4819642000002204,-0.0,1.998202200000378,<function functiondiffA at 0x000001E4A56E7D08>,<function functiondiffC at 0x000001E4A3FA56A8>,<function functiondiffB at 0x000001E4A56E78C8>,,,,,876.7794410999995,899.2167860999998,None,904.5662866000002,None,902.6666468000003,None,002,001,2022_Jun_13_1033,2leo,2021.2.3,59.99232098282447,
3,41,Plan how you want to have dinner tonight ,Stimuli/41A1.jpg,Stimuli/41A2.jpg,Stimuli/41A3.jpg,Stimuli/41B1.jpg,Stimuli/41B2.jpg,Stimuli/41B3.jpg,Stimuli/41C1.jpg,Stimuli/41C2.jpg,Stimuli/41C3.jpg,,,,,0,13,13,41,,,,,,,,905.8331954000005,None,906.8330817000005,None,912.8332054000002,None,"[-0.377, 0.138]","[0.066, -0.395]","[0.306, 0.255]","[-0.378, -0.136]","[0.304, -0.26]","[0.07, 0.393]","[-0.2, 0.346]","[-0.203, -0.347]","[0.399, -0.003]",,8.853856080000696,5.871003280000878,12.971009880000565,"[-0.3453703703703704, 0.053703703703703705, -0.15555555555555556]","[-0.09907407407407408, -0.3388888888888889, 0.28055555555555556]","[1, 1, 1]","[0, 0, 0]","[0, 0, 0]","[5.866473799998857, 8.849498600000516, 12.966243699998813]",0.003865280001264182,12.969828080000298,['A2'],['B1'],['C1'],['yellow'],['salmon'],['blue'],927.6324437000003,None,10.0,2.5306427999985317,927.6324437000003,None,934.7824982999991,None,10.0,3.481657300000734,938.2988889999997,None,10.0,3.031630600000426,930.4493007000001,None,3.0,4.514122699998552,<function functionImportanceC at 0x000001E4A59C42F0>,<function functionImportanceA at 0x000001E4A56E79D8>,<function functionImportanceB at 0x000001E4A59C46A8>,,,0.0,2.7311982000010175,3.0,3.481657300000734,3.0,3.031253999999535,<function functiondiffC at 0x000001E4A3FA5BF8>,<function functiondiffB at 0x000001E4A56E77B8>,<function functiondiffA at 0x000001E4A510AA60>,,,,,914.1822467000002,948.0154646999999,None,944.9653701000007,None,941.3157116999992,None,002,001,2022_Jun_13_1033,2leo,2021.2.3,59.99232098282447,
3,25,Plan how you want to read a book in your free time ,Stimuli/25A1.jpg,Stimuli/25A2.jpg,Stimuli/25A3.jpg,Stimuli/25B1.jpg,Stimuli/25B2.jpg,Stimuli/25B3.jpg,Stimuli/25C1.jpg,Stimuli/25C2.jpg,Stimuli/25C3.jpg,,,,,0,14,14,25,,,,,,,,950.2653726000008,None,951.2652115000001,None,957.2651855999993,None,"[-0.203, -0.347]","[0.399, -0.003]","[-0.2, 0.346]","[0.066, -0.395]","[0.306, 0.255]","[-0.377, 0.138]","[0.304, -0.26]","[0.07, 0.393]","[-0.378, -0.136]",,13.456813140001032,18.256684940000923,15.957158940000227,"[-0.16018518518518518, 0.07962962962962963, 0.025925925925925925]","[-0.32037037037037036, 0.3592592592592593, -0.32407407407407407]","[1, 1, 1]","[0, 0, 0]","[0, 0, 0]","[13.442148799998904, 15.941867999999886, 18.241764599999442]",0.014249840001866687,18.25587454000015,['A1'],['B1'],['C2'],['yellow'],['blue'],['salmon'],977.4477929999994,None,5.0,2.7134298000000854,977.4477929999994,None,980.231283699999,None,10.0,1.831130699998539,982.1145133999999,None,10.0,2.131804500000726,984.5499204000007,None,10.0,1.9822700999993685,<function functionImportanceA at 0x000001E4A59C4D90>,<function functionImportanceB at 0x000001E4A59C4268>,<function functionImportanceC at 0x000001E4A59C4C80>,,,0.0,2.514425299999857,-0.0,1.831130699998539,5.0,2.9967049000006227,<function functiondiffB at 0x000001E4A59C4378>,<function functiondiffA at 0x000001E4A59C4950>,<function functiondiffC at 0x000001E4A59C4BF8>,,,,,958.7352850999996,989.2141730000003,None,986.2142906999998,None,991.8308983999996,None,002,001,2022_Jun_13_1033,2leo,2021.2.3,59.99232098282447,
3,26,Plan how to wash one round of your laundry ,Stimuli/26A1.jpg,Stimuli/26A2.jpg,Stimuli/26A3.jpg,Stimuli/26B1.jpg,Stimuli/26B2.jpg,Stimuli/26B3.jpg,Stimuli/26C1.jpg,Stimuli/26C2.jpg,Stimuli/26C3.jpg,,,,,0,15,15,26,,,,,,,,1008.6472061999993,None,1009.6470004999992,None,1015.6470374,None,"[0.304, -0.26]","[-0.378, -0.136]","[0.07, 0.393]","[-0.203, -0.347]","[-0.2, 0.346]","[0.399, -0.003]","[0.066, -0.395]","[-0.377, 0.138]","[0.306, 0.255]",,21.120394659999874,13.671200560000216,26.704092259999015,"[0.36018518518518516, -0.4064814814814815, 0.0]","[0.008333333333333333, -0.11388888888888889, -0.3212962962962963]","[1, 1, 1]","[0, 0, 0]","[0, 0, 0]","[13.659514500001023, 21.10904970000047, 26.69231310000032]",0.01084335999985342,26.702866559999165,['A2'],['B3'],['C1'],['salmon'],['blue'],['yellow'],1043.9293976999998,None,10.0,1.7967312000000675,1043.9293976999998,None,1045.7792740000004,None,10.0,2.897756500000469,1048.7127992999995,None,10.0,2.0815175999996427,1050.8127996999992,None,10.0,1.8160494000003382,<function functionImportanceA at 0x000001E4A59C4A60>,<function functionImportanceB at 0x000001E4A59C4488>,<function functionImportanceC at 0x000001E4A59C48C8>,,,5.0,3.9813211999990017,-0.0,2.897756500000469,-0.0,2.5308485999994446,<function functiondiffC at 0x000001E4A59C4158>,<function functiondiffA at 0x000001E4A59C4400>,<function functiondiffB at 0x000001E4A59C49D8>,,,,,1016.7530521999997,1054.7126656,None,1058.7125608999995,None,1052.6125075,None,002,001,2022_Jun_13_1033,2leo,2021.2.3,59.99232098282447,
3,23,Plan a city trip,Stimuli/23A1.jpg,Stimuli/23A2.jpg,Stimuli/23A3.jpg,Stimuli/23B1.jpg,Stimuli/23B2.jpg,Stimuli/23B3.jpg,Stimuli/23C1.jpg,Stimuli/23C2.jpg,Stimuli/23C3.jpg,,,,,0,16,16,23,,,,,,,,1060.7622647000007,None,1061.7624510999995,None,1067.7624691,None,"[0.066, -0.395]","[0.306, 0.255]","[-0.377, 0.138]","[0.304, -0.26]","[0.07, 0.393]","[-0.378, -0.136]","[-0.203, -0.347]","[0.399, -0.003]","[-0.2, 0.346]",,7.217590519998339,12.901350019999882,17.101077519999308,"[0.26944444444444443, -0.37962962962962965, 0.3314814814814815]","[0.21851851851851853, -0.11574074074074074, -0.002777777777777778]","[1, 1, 1]","[0, 0, 0]","[0, 0, 0]","[7.207463900000221, 12.890974700001607, 17.090538500000548]",0.009514119999948889,17.09981351999886,['A2'],['B3'],['C2'],['salmon'],['yellow'],['blue'],1086.4781908999994,None,7.0,3.3469910999992862,1086.4781908999994,None,1093.2949279000004,None,10.0,1.715231300000596,1095.0449086000008,None,10.0,1.6649923999993916,1089.9281766000004,None,10.0,3.397992300000624,<function functionImportanceC at 0x000001E4A59C4840>,<function functionImportanceA at 0x000001E4A3FA5AE8>,<function functionImportanceB at 0x000001E4A56E70D0>,,,-0.0,1.8981024999993679,-0.0,1.715231300000596,10.0,2.7980031999995845,<function functiondiffC at 0x000001E4A56E7268>,<function functiondiffA at 0x000001E4A59C4E18>,<function functiondiffB at 0x000001E4A59C4F28>,,,,,1068.9023796000001,1099.3447883999997,None,1101.2614446000007,None,1096.6948962000006,None,002,001,2022_Jun_13_1033,2leo,2021.2.3,59.99232098282447,
3,0,Plan a barbecue,Stimuli/0A1.jpg,Stimuli/0A2.jpg,Stimuli/0A3.jpg,Stimuli/0B1.jpg,Stimuli/0B2.jpg,Stimuli/0B3.jpg,Stimuli/0C1.jpg,Stimuli/0C2.jpg,Stimuli/0C3.jpg,,,,,0,17,17,0,,,,,,,,1103.5780159999995,None,1104.5778776999996,None,1110.5778553,None,"[0.399, -0.003]","[-0.2, 0.346]","[-0.203, -0.347]","[0.306, 0.255]","[-0.377, 0.138]","[0.066, -0.395]","[0.07, 0.393]","[-0.378, -0.136]","[0.304, -0.26]",,5.257871380003053,10.2581099800027,16.625130080003146,"[0.4212962962962963, 0.2462962962962963, 0.2574074074074074]","[0.008333333333333333, 0.2388888888888889, -0.2074074074074074]","[1, 1, 1]","[0, 0, 0]","[0, 0, 0]","[5.254194600000119, 10.254145799999606, 16.620780100000047]",0.003257080003095325,16.623757480003405,['A1'],['B1'],['C3'],['salmon'],['yellow'],['blue'],1130.1270769000002,None,2.0,2.8296979000006104,1130.1270769000002,None,1138.4604486999997,None,10.0,2.765876699999353,1133.0273008999993,None,6.0,4.097718299999542,1139.9291453000005,None,10.0,1.8818731000010303,<function functionImportanceB at 0x000001E4A731D0D0>,<function functionImportanceA at 0x000001E4A56E71E0>,<function functionImportanceC at 0x000001E4A731D378>,,,10.0,3.231078600001638,10.0,2.765876699999353,-0.0,2.1479562999993504,<function functiondiffA at 0x000001E4A59C4620>,<function functiondiffC at 0x000001E4A731D488>,<function functiondiffB at 0x000001E4A59C47B8>,,,,,1113.0370296,1142.1937369999996,None,1147.9766762,None,1145.0436754999992,None,002,001,2022_Jun_13_1033,2leo,2021.2.3,59.99232098282447,
3,27,Plan what festival to visit with your friends,Stimuli/27A1.jpg,Stimuli/27A2.jpg,Stimuli/27A3.jpg,Stimuli/27B1.jpg,Stimuli/27B2.jpg,Stimuli/27B3.jpg,Stimuli/27C1.jpg,Stimuli/27C2.jpg,Stimuli/27C3.jpg,,,,,0,18,18,27,,,,,,,,1149.6599428999998,None,1150.6599537999991,None,1156.6598900000008,None,"[-0.2, 0.346]","[-0.203, -0.347]","[0.399, -0.003]","[-0.378, -0.136]","[0.304, -0.26]","[0.07, 0.393]","[-0.377, 0.138]","[0.066, -0.395]","[0.306, 0.255]",,14.193413259999943,6.193734559999939,18.160097160000078,"[0.03425925925925926, 0.37777777777777777, 0.2601851851851852]","[0.4083333333333333, 0.03611111111111111, 0.17685185185185184]","[1, 1, 1]","[0, 0, 0]","[0, 0, 0]","[6.187306300000273, 14.187224600000263, 18.15339049999966]",0.005584660000749864,18.15897686000062,['A3'],['B3'],['C3'],['blue'],['salmon'],['yellow'],1176.4095710000001,None,7.0,2.580388500000481,1176.4095710000001,None,1179.0927351999999,None,10.0,2.6312469000004057,1181.6923848999995,None,10.0,1.5317112999982783,1183.2591054999994,None,10.0,1.481762000001254,<function functionImportanceA at 0x000001E4A731DE18>,<function functionImportanceB at 0x000001E4A731D9D8>,<function functionImportanceC at 0x000001E4A731DD08>,,,4.0,4.764066700001422,10.0,2.6312469000004057,6.0,4.881220499999472,<function functiondiffA at 0x000001E4A731DB70>,<function functiondiffB at 0x000001E4A731DBF8>,<function functiondiffC at 0x000001E4A731D048>,,,,,1157.7707248000006,1184.7257838999994,None,1189.5106044000004,None,1194.4089612000007,None,002,001,2022_Jun_13_1033,2leo,2021.2.3,59.99232098282447,
3,37,Plan your cleaning routine ,Stimuli/37A1.jpg,Stimuli/37A2.jpg,Stimuli/37A3.jpg,Stimuli/37B1.jpg,Stimuli/37B2.jpg,Stimuli/37B3.jpg,Stimuli/37C1.jpg,Stimuli/37C2.jpg,Stimuli/37C3.jpg,,,,,0,19,19,37,,,,,,,,1197.9586682999998,None,1198.9587446000005,None,1204.9587976000003,None,"[-0.378, -0.136]","[0.304, -0.26]","[0.07, 0.393]","[-0.2, 0.346]","[-0.203, -0.347]","[0.399, -0.003]","[-0.377, 0.138]","[0.066, -0.395]","[0.306, 0.255]",,6.118044259997987,15.917987359996914,8.401889159997154,"[0.26666666666666666, 0.09259259259259259, -0.1814814814814815]","[-0.19907407407407407, -0.3851851851851852, 0.262037037037037]","[1, 1, 1]","[0, 0, 0]","[0, 0, 0]","[6.107961099998647, 8.39123219999965, 15.907736899998781]",0.009578259998306748,15.917030359998535,['A2'],['B1'],['C2'],['blue'],['salmon'],['yellow'],1222.4580435000007,None,1.0,1.7304552999994485,1222.4580435000007,None,1229.2246685999999,None,10.0,2.3984005999991496,1224.2414128,None,0.0,4.947915000000648,1231.6247230999998,None,10.0,2.8483966999992845,<function functionImportanceB at 0x000001E4A59C4EA0>,<function functionImportanceA at 0x000001E4A59C4510>,<function functionImportanceC at 0x000001E4A731DAE8>,,,0.0,3.3810164999995322,5.0,2.3984005999991496,10.0,2.3481756999990466,<function functiondiffA at 0x000001E4A59C41E0>,<function functiondiffB at 0x000001E4A59C40D0>,<function functiondiffC at 0x000001E4A59C4730>,,,,,1206.0647984999996,1234.474731799999,None,1237.8745445999994,None,1240.2410323999993,None,002,001,2022_Jun_13_1033,2leo,2021.2.3,59.99232098282447,
3,8,Plan the interior of your living-room ,Stimuli/8A1.jpg,Stimuli/8A2.jpg,Stimuli/8A3.jpg,Stimuli/8B1.jpg,Stimuli/8B2.jpg,Stimuli/8B3.jpg,Stimuli/8C1.jpg,Stimuli/8C2.jpg,Stimuli/8C3.jpg,,,,,0,20,20,8,,,,,,,,1245.5240436000004,None,1246.5250868000003,None,1252.5241179999994,None,"[-0.377, 0.138]","[0.066, -0.395]","[0.306, 0.255]","[-0.378, -0.136]","[0.304, -0.26]","[0.07, 0.393]","[-0.2, 0.346]","[-0.203, -0.347]","[0.399, -0.003]",,25.593644280001172,32.09373118000076,39.027422980001575,"[-0.31203703703703706, 0.03888888888888889, 0.32685185185185184]","[0.09074074074074075, 0.3527777777777778, 0.0]","[1, 1, 1]","[0, 0, 0]","[0, 0, 0]","[25.584387799999604, 32.08401260000028, 39.017483899999206]",0.008791180001935572,39.02584738000223,['A1'],['B3'],['C3'],['blue'],['yellow'],['salmon'],1296.8226214000006,None,-0.0,1.4467580000000453,1296.8226214000006,None,1298.3394078000001,None,10.0,3.081276099999741,1303.1727186999997,None,10.0,3.231109700000161,1306.6226394999994,None,10.0,3.548144099999263,<function functionImportanceA at 0x000001E4A731D158>,<function functionImportanceB at 0x000001E4A731D400>,<function functionImportanceC at 0x000001E4A59C4D08>,,,10.0,1.5142682000005152,10.0,3.081276099999741,10.0,1.830717499999082,<function functiondiffA at 0x000001E4A731DC80>,<function functiondiffC at 0x000001E4A731D730>,<function functiondiffB at 0x000001E4A731D950>,,,,,1257.3385364999995,1308.2228722,None,1312.2892759999995,None,1310.3559416999997,None,002,001,2022_Jun_13_1033,2leo,2021.2.3,59.99232098282447,
3,29,Plan a day in the mountains ,Stimuli/29A1.jpg,Stimuli/29A2.jpg,Stimuli/29A3.jpg,Stimuli/29B1.jpg,Stimuli/29B2.jpg,Stimuli/29B3.jpg,Stimuli/29C1.jpg,Stimuli/29C2.jpg,Stimuli/29C3.jpg,,,,,0,21,21,29,,,,,,,,1313.1056393,None,1314.1059626000006,None,1320.1056967000004,None,"[-0.378, -0.136]","[0.304, -0.26]","[0.07, 0.393]","[-0.2, 0.346]","[-0.203, -0.347]","[0.399, -0.003]","[-0.377, 0.138]","[0.066, -0.395]","[0.306, 0.255]",,16.891274460000204,7.758316359999299,13.825285760000043,"[-0.19814814814814816, -0.35462962962962963, 0.0962962962962963]","[0.30462962962962964, 0.15092592592592594, 0.35833333333333334]","[1, 1, 1]","[0, 0, 0]","[0, 0, 0]","[7.752504399999452, 13.819297300000471, 16.88558809999995]",0.0050212599999213126,16.890567459999147,['A3'],['B1'],['C1'],['yellow'],['blue'],['salmon'],1338.6716367999998,None,7.0,2.980201099999249,1338.6716367999998,None,1341.7718351000003,None,10.0,2.247537499999453,1346.621314,None,3.0,2.081968599999527,1344.0383832999996,None,10.0,2.581884600000194,<function functionImportanceA at 0x000001E4A731D2F0>,<function functionImportanceC at 0x000001E4A76A78C8>,<function functionImportanceB at 0x000001E4A731D1E0>,,,7.0,3.497665099999722,2.0,2.247537499999453,0.0,3.832036899999366,<function functiondiffA at 0x000001E4A731DF28>,<function functiondiffC at 0x000001E4A731D510>,<function functiondiffB at 0x000001E4A731D8C8>,,,,,1321.3006960999992,1348.671526,None,1354.454730899999,None,1352.171511299999,None,002,001,2022_Jun_13_1033,2leo,2021.2.3,59.99232098282447,
3,39,Plan what kind of watch you want to buy,Stimuli/39A1.jpg,Stimuli/39A2.jpg,Stimuli/39A3.jpg,Stimuli/39B1.jpg,Stimuli/39B2.jpg,Stimuli/39B3.jpg,Stimuli/39C1.jpg,Stimuli/39C2.jpg,Stimuli/39C3.jpg,,,,,0,22,22,39,,,,,,,,1357.8044828000002,None,1358.8046845999997,None,1364.8045088,None,"[0.07, 0.393]","[-0.378, -0.136]","[0.304, -0.26]","[0.306, 0.255]","[-0.377, 0.138]","[0.066, -0.395]","[0.399, -0.003]","[-0.2, 0.346]","[-0.203, -0.347]",,21.95582542000011,7.256591819999812,17.789788520000002,"[0.30833333333333335, -0.22777777777777777, -0.3648148148148148]","[0.2388888888888889, -0.3675925925925926, -0.11388888888888889]","[1, 1, 1]","[0, 0, 0]","[0, 0, 0]","[7.252112199999829, 17.784927900000184, 21.951482299999043]",0.0037885199999436736,21.955240219998814,['A2'],['B1'],['C3'],['yellow'],['salmon'],['blue'],1388.3869907999997,None,2.0,2.796640299999126,1388.3869907999997,None,1391.2538628000002,None,10.0,2.84811450000052,1394.1036014000001,None,10.0,1.41568929999994,1395.5870135000005,None,0.0,1.8816577999987203,<function functionImportanceA at 0x000001E4A731DD90>,<function functionImportanceB at 0x000001E4A76A7B70>,<function functionImportanceC at 0x000001E4A76A7400>,,,4.0,4.064683699998568,8.0,2.84811450000052,0.0,2.0475509999996575,<function functiondiffA at 0x000001E4A4DFD158>,<function functiondiffB at 0x000001E4A56E7378>,<function functiondiffC at 0x000001E4A56E7EA0>,,,,,1365.9513275999998,1397.4204031000008,None,1401.5036349999991,None,1403.5702134999992,None,002,001,2022_Jun_13_1033,2leo,2021.2.3,59.99232098282447,
3,11,Plan a hike in nature on a free day,Stimuli/11A1.jpg,Stimuli/11A2.jpg,Stimuli/11A3.jpg,Stimuli/11B1.jpg,Stimuli/11B2.jpg,Stimuli/11B3.jpg,Stimuli/11C1.jpg,Stimuli/11C2.jpg,Stimuli/11C3.jpg,,,,,0,23,23,11,,,,,,,,1405.4865695999997,None,1406.4866600999994,None,1412.4866958000002,None,"[-0.203, -0.347]","[0.399, -0.003]","[-0.2, 0.346]","[0.066, -0.395]","[0.306, 0.255]","[-0.377, 0.138]","[0.304, -0.26]","[0.07, 0.393]","[-0.378, -0.136]",,4.008035139999265,4.358351040000343,10.142100540000683,"[0.35555555555555557, 0.29814814814814816, -0.40925925925925927]","[0.027777777777777776, 0.26296296296296295, -0.1787037037037037]","[1, 1, 1]","[0, 0, 0]","[0, 0, 0]","[4.002931500001068, 4.3529741000002105, 10.136407900001359]",0.004598139999870909,10.140776939999341,['A2'],['B2'],['C3'],['yellow'],['blue'],['salmon'],1424.2361624000005,None,8.0,1.846773100000064,1424.2361624000005,None,1430.936187199999,None,10.0,2.264996299998529,1426.152919099999,None,10.0,2.081121400000484,1428.2528758000008,None,6.0,2.6648826000000554,<function functionImportanceB at 0x000001E4A731DEA0>,<function functionImportanceC at 0x000001E4A731D840>,<function functionImportanceA at 0x000001E4A510AC80>,,,-0.0,1.764625800000431,0.0,2.264996299998529,0.0,2.4479111000000557,<function functiondiffC at 0x000001E4A76A7510>,<function functiondiffB at 0x000001E4A76A71E0>,<function functiondiffA at 0x000001E4A76A7A60>,,,,,1413.6154203999995,1438.2692418000006,None,1435.8027168999997,None,1433.186021899999,None,002,001,2022_Jun_13_1033,2leo,2021.2.3,59.99232098282447,
3,4,Plan a game night at your place,Stimuli/4A1.jpg,Stimuli/4A2.jpg,Stimuli/4A3.jpg,Stimuli/4B1.jpg,Stimuli/4B2.jpg,Stimuli/4B3.jpg,Stimuli/4C1.jpg,Stimuli/4C2.jpg,Stimuli/4C3.jpg,,,,,0,24,24,4,,,,,,,,1439.5523226000005,None,1440.5525486000006,None,1446.5523761999993,None,"[-0.378, -0.136]","[0.07, 0.393]","[0.304, -0.26]","[-0.2, 0.346]","[0.399, -0.003]","[-0.203, -0.347]","[-0.377, 0.138]","[0.306, 0.255]","[0.066, -0.395]",,17.066935580001882,10.016427480002676,7.58335678000185,"[-0.39166666666666666, -0.15462962962962962, -0.35833333333333334]","[0.12685185185185185, -0.3037037037037037, -0.1527777777777778]","[1, 1, 1]","[0, 0, 0]","[0, 0, 0]","[7.578442500000165, 10.011619200000496, 17.062547699999413]",0.00398898000275949,17.065813280003567,['A1'],['B3'],['C1'],['salmon'],['blue'],['yellow'],1467.4683411000005,None,8.0,1.9796174999992218,1467.4683411000005,None,1470.5182762000004,None,5.0,4.398631800000658,1477.201654299999,None,10.0,2.0818742999999813,1475.2527895000003,None,10.0,3.281789000000572,<function functionImportanceA at 0x000001E4A56E7048>,<function functionImportanceC at 0x000001E4A731D6A8>,<function functionImportanceB at 0x000001E4A56E7158>,,,6.0,4.2478107000006275,0.0,4.398631800000658,2.0,2.681140900000173,<function functiondiffB at 0x000001E4A731DA60>,<function functiondiffC at 0x000001E4A76A76A8>,<function functiondiffA at 0x000001E4A56E7620>,,,,,1449.9400805000005,1484.9513473999996,None,1479.3016331,None,1482.3847062000004,None,002,001,2022_Jun_13_1033,2leo,2021.2.3,59.99232098282447,
3,34,Plan what car you want to buy,Stimuli/34A1.jpg,Stimuli/34A2.jpg,Stimuli/34A3.jpg,Stimuli/34B1.jpg,Stimuli/34B2.jpg,Stimuli/34B3.jpg,Stimuli/34C1.jpg,Stimuli/34C2.jpg,Stimuli/34C3.jpg,,,,,0,25,25,34,,,,,,,,1488.4010385000001,None,1489.4011140999992,None,1495.4011348999993,None,"[0.304, -0.26]","[0.07, 0.393]","[-0.378, -0.136]","[0.066, -0.395]","[0.306, 0.255]","[-0.377, 0.138]","[-0.203, -0.347]","[0.399, -0.003]","[-0.2, 0.346]",,5.883445560000837,2.60040176000075,11.700469760000487,"[0.03796296296296296, 0.2796296296296296, 0.35648148148148145]","[-0.32037037037037036, -0.2611111111111111, 0.019444444444444445]","[1, 1, 1]","[0, 0, 0]","[0, 0, 0]","[2.5883911000000808, 5.871744899999612, 11.68817560000025]",0.011303360000965768,11.699275259999922,['A1'],['B1'],['C2'],['blue'],['salmon'],['yellow'],1510.7004727999993,None,8.0,2.197553299998617,1510.7004727999993,None,1518.5167641999997,None,10.0,2.6651402999996208,1515.9005507000002,None,10.0,2.51529710000068,1513.0006668999995,None,10.0,1.9310479000014311,<function functionImportanceC at 0x000001E4A76A77B8>,<function functionImportanceB at 0x000001E4A76A7048>,<function functionImportanceA at 0x000001E4A56E7B70>,,,0.0,4.5313614000006055,-0.0,2.6651402999996208,-0.0,1.9146460000010848,<function functiondiffC at 0x000001E4A76A7488>,<function functiondiffB at 0x000001E4A76A7950>,<function functiondiffA at 0x000001E4A56E7840>,,,,,1498.5450134000002,1524.9503499000002,None,1522.9171012000006,None,1520.1004563000006,None,002,001,2022_Jun_13_1033,2leo,2021.2.3,59.99232098282447,
3,1,Plan how to study for an exam,Stimuli/1A1.jpg,Stimuli/1A2.jpg,Stimuli/1A3.jpg,Stimuli/1B1.jpg,Stimuli/1B2.jpg,Stimuli/1B3.jpg,Stimuli/1C1.jpg,Stimuli/1C2.jpg,Stimuli/1C3.jpg,,,,,0,26,26,1,,,,,,,,1528.6664498999999,None,1529.6666726000003,None,1535.6666719999994,None,"[-0.377, 0.138]","[0.306, 0.255]","[0.066, -0.395]","[-0.2, 0.346]","[0.399, -0.003]","[-0.203, -0.347]","[-0.378, -0.136]","[0.07, 0.393]","[0.304, -0.26]",,14.037880080000832,11.521675180001694,2.8222120800019184,"[0.3212962962962963, 0.4212962962962963, 0.0787037037037037]","[-0.21666666666666667, 0.004629629629629629, -0.31666666666666665]","[1, 1, 1]","[0, 0, 0]","[0, 0, 0]","[2.818238100000599, 11.518083499999193, 14.034456999999747]",0.002853980000509182,14.037242680000418,['A3'],['B2'],['C3'],['salmon'],['yellow'],['blue'],1551.2827947000005,None,8.0,1.6304444999987027,1551.2827947000005,None,1556.9827172999994,None,7.0,2.615396099999998,1554.7493718999995,None,10.0,2.2149034999983996,1552.9495831999993,None,10.0,1.7315494000013132,<function functionImportanceC at 0x000001E4A76A79D8>,<function functionImportanceB at 0x000001E4A76A7598>,<function functionImportanceA at 0x000001E4A76A7AE8>,,,-0.0,4.048209200000201,-0.0,2.615396099999998,7.0,2.6311984000003577,<function functiondiffC at 0x000001E4A59C4048>,<function functiondiffB at 0x000001E4A76A7840>,<function functiondiffA at 0x000001E4A56E7D90>,,,,,1536.7638000000006,1564.5494581999992,None,1561.899483699999,None,1559.5496354999996,None,002,001,2022_Jun_13_1033,2leo,2021.2.3,59.99232098282447,
3,7,Plan your Sunday breakfast ,Stimuli/7A1.jpg,Stimuli/7A2.jpg,Stimuli/7A3.jpg,Stimuli/7B1.jpg,Stimuli/7B2.jpg,Stimuli/7B3.jpg,Stimuli/7C1.jpg,Stimuli/7C2.jpg,Stimuli/7C3.jpg,,,,,0,27,27,7,,,,,,,,1568.1153627000003,None,1569.1157428000006,None,1575.1157996000002,None,"[-0.377, 0.138]","[0.066, -0.395]","[0.306, 0.255]","[-0.378, -0.136]","[0.304, -0.26]","[0.07, 0.393]","[-0.2, 0.346]","[-0.203, -0.347]","[0.399, -0.003]",,15.513625140003569,7.714441340003759,19.747396540004047,"[0.26666666666666666, 0.2824074074074074, -0.22592592592592592]","[-0.21296296296296297, 0.2388888888888889, 0.3416666666666667]","[1, 1, 1]","[0, 0, 0]","[0, 0, 0]","[7.6973837000005005, 15.496734600001218, 19.7301494000003]",0.016290240004309453,19.746223640004246,['A3'],['B2'],['C1'],['blue'],['yellow'],['salmon'],1601.2481571999997,None,3.0,2.113795499999469,1601.2481571999997,None,1615.7809178999996,None,10.0,3.431939300000522,1605.3212743000004,None,10.0,5.5311428000004526,1610.1647365000008,None,7.0,5.015361300000222,<function functionImportanceB at 0x000001E4A731D268>,<function functionImportanceC at 0x000001E4A731D620>,<function functionImportanceA at 0x000001E4A76A72F0>,,,10.0,2.8144350000002305,0.0,3.431939300000522,8.0,3.380349400000341,<function functiondiffA at 0x000001E4A59C4598>,<function functiondiffC at 0x000001E4A76A70D0>,<function functiondiffB at 0x000001E4A76A7E18>,,,,,1581.0530904000007,1617.9308918999996,None,1625.9811343000001,None,1620.6144038999992,None,002,001,2022_Jun_13_1033,2leo,2021.2.3,59.99232098282447,
3,6,Plan your wedding,Stimuli/6A1.jpg,Stimuli/6A2.jpg,Stimuli/6A3.jpg,Stimuli/6B1.jpg,Stimuli/6B2.jpg,Stimuli/6B3.jpg,Stimuli/6C1.jpg,Stimuli/6C2.jpg,Stimuli/6C3.jpg,,,,,0,28,28,6,,,,,,,,1628.1973620000008,None,1629.1975172000002,None,1635.1975843,None,"[0.07, 0.393]","[-0.378, -0.136]","[0.304, -0.26]","[0.399, -0.003]","[-0.2, 0.346]","[-0.203, -0.347]","[0.306, 0.255]","[-0.377, 0.138]","[0.066, -0.395]",,8.988006120001955,14.82153092000226,19.338382420002745,"[0.10462962962962963, -0.21666666666666667, -0.362962962962963]","[0.35833333333333334, 0.32314814814814813, 0.11388888888888889]","[1, 1, 1]","[0, 0, 0]","[0, 0, 0]","[8.970928800001275, 14.8040732999998, 19.320712800001274]",0.016648220002025482,19.337277820002782,['A1'],['B2'],['C2'],['salmon'],['yellow'],['blue'],1660.2632178000003,None,7.0,2.6798054999999295,1660.2632178000003,None,1674.9629671999992,None,10.0,3.1982197999986965,1664.7966560000004,None,10.0,6.4642298000017036,1670.7464538999993,None,6.0,4.231454500000837,<function functionImportanceB at 0x000001E4A731D7B8>,<function functionImportanceC at 0x000001E4ABF9F2F0>,<function functionImportanceA at 0x000001E4A731D598>,,,0.0,3.015002699999968,7.0,3.1982197999986965,6.0,4.4310947000012675,<function functiondiffB at 0x000001E4A76A7BF8>,<function functiondiffA at 0x000001E4A76A7D08>,<function functiondiffC at 0x000001E4A76A7EA0>,,,,,1640.4777343999995,1681.6794778999993,None,1677.3296828999992,None,1684.7960051999999,None,002,001,2022_Jun_13_1033,2leo,2021.2.3,59.99232098282447,
3,14,Plan your own Pizza for dinner,Stimuli/14A1.jpg,Stimuli/14A2.jpg,Stimuli/14A3.jpg,Stimuli/14B1.jpg,Stimuli/14B2.jpg,Stimuli/14B3.jpg,Stimuli/14C1.jpg,Stimuli/14C2.jpg,Stimuli/14C3.jpg,,,,,0,29,29,14,,,,,,,,1688.5288899000006,None,1689.5291992999992,None,1695.5293309000008,None,"[0.304, -0.26]","[0.07, 0.393]","[-0.378, -0.136]","[0.066, -0.395]","[0.306, 0.255]","[-0.377, 0.138]","[-0.203, -0.347]","[0.399, -0.003]","[-0.2, 0.346]",,25.413417360001404,18.597387560001152,12.980881160001445,"[0.3296296296296296, -0.3212962962962963, 0.25833333333333336]","[0.025925925925925925, 0.07407407407407407, -0.2324074074074074]","[1, 1, 1]","[0, 0, 0]","[0, 0, 0]","[12.971755200000189, 18.58844809999937, 25.404952499999126]",0.008056060001763399,25.412741860001915,['A1'],['B3'],['C2'],['blue'],['salmon'],['yellow'],1722.6115018,None,3.0,1.9804382000002079,1722.6115018,None,1727.7782480000005,None,10.0,1.6153823000004195,1724.7450198000006,None,10.0,1.7646046000008937,1726.4617383999994,None,10.0,1.2817512999990868,<function functionImportanceB at 0x000001E4ABF9F8C8>,<function functionImportanceC at 0x000001E4ABF9F1E0>,<function functionImportanceA at 0x000001E4ABF9F7B8>,,,0.0,1.897589500000322,10.0,1.6153823000004195,7.0,4.064863800000239,<function functiondiffA at 0x000001E4A76A7620>,<function functiondiffB at 0x000001E4A76A7D90>,<function functiondiffC at 0x000001E4A76A7268>,,,,,1696.7200635999998,1729.3282536999996,None,1731.2783345000007,None,1735.3447013999994,None,002,001,2022_Jun_13_1033,2leo,2021.2.3,59.99232098282447,
3,42,Plan how to draw a painting ,Stimuli/42A1.jpg,Stimuli/42A2.jpg,Stimuli/42A3.jpg,Stimuli/42B1.jpg,Stimuli/42B2.jpg,Stimuli/42B3.jpg,Stimuli/42C1.jpg,Stimuli/42C2.jpg,Stimuli/42C3.jpg,,,,,0,30,30,42,,,,,,,,1741.4278051000001,None,1742.4278821000007,None,1748.4278111000003,None,"[0.306, 0.255]","[-0.377, 0.138]","[0.066, -0.395]","[0.07, 0.393]","[-0.378, -0.136]","[0.304, -0.26]","[0.399, -0.003]","[-0.2, 0.346]","[-0.203, -0.347]",,4.211906360000285,16.17865265999899,11.962266659998932,"[-0.3277777777777778, 0.35, -0.29907407407407405]","[0.1259259259259259, 0.03888888888888889, -0.05185185185185185]","[1, 1, 1]","[0, 0, 0]","[0, 0, 0]","[4.195705000000089, 11.94559079999999, 16.162215500000457]",0.01568905999920389,16.177627159999247,['A2'],['B2'],['C1'],['blue'],['yellow'],['salmon'],1766.3438017999997,None,3.0,1.8135076999988087,1766.3438017999997,None,1770.2438187000007,None,8.0,3.04854239999986,1773.1605416999992,None,8.0,2.3316070000000764,1768.2105255000006,None,10.0,1.8481868999988365,<function functionImportanceC at 0x000001E4ABF9FE18>,<function functionImportanceA at 0x000001E4ABF9FF28>,<function functionImportanceB at 0x000001E4ABF9FEA0>,,,0.0,3.0311966000008397,10.0,3.04854239999986,-0.0,2.114514799999597,<function functiondiffB at 0x000001E4ABF9FD90>,<function functiondiffC at 0x000001E4ABF9FD08>,<function functiondiffA at 0x000001E4ABF9F048>,,,,,1749.6978282,1779.8435852000002,None,1775.4770157000003,None,1777.6102984999998,None,002,001,2022_Jun_13_1033,2leo,2021.2.3,59.99232098282447,
3,20,Plan a tea party with your friends,Stimuli/20A1.jpg,Stimuli/20A2.jpg,Stimuli/20A3.jpg,Stimuli/20B1.jpg,Stimuli/20B2.jpg,Stimuli/20B3.jpg,Stimuli/20C1.jpg,Stimuli/20C2.jpg,Stimuli/20C3.jpg,,,,,0,31,31,20,,,,,,,,1782.3599730000005,None,1783.3599582999996,None,1789.3600251000007,None,"[0.399, -0.003]","[-0.203, -0.347]","[-0.2, 0.346]","[0.07, 0.393]","[0.304, -0.26]","[-0.378, -0.136]","[0.306, 0.255]","[0.066, -0.395]","[-0.377, 0.138]",,18.403156620002846,7.986869520002074,4.7537596200036205,"[0.3037037037037037, 0.040740740740740744, -0.16111111111111112]","[0.2388888888888889, 0.3888888888888889, 0.275]","[1, 1, 1]","[0, 0, 0]","[0, 0, 0]","[4.737475699999777, 7.970879699998477, 18.387242400000105]",0.015325620002840878,18.402378220001992,['A3'],['B1'],['C1'],['salmon'],['blue'],['yellow'],1811.8093752000004,None,5.0,1.996905300000435,1811.8093752000004,None,1818.3592248999994,None,5.0,2.948372599999857,1816.2759643999998,None,10.0,4.4314051999990625,1821.2757932000004,None,6.0,2.998537399998895,<function functionImportanceB at 0x000001E4A76A7C80>,<function functionImportanceA at 0x000001E4A76A7730>,<function functionImportanceC at 0x000001E4ABF9F730>,,,8.0,2.681794099999024,6.0,2.948372599999857,0.0,2.631265499998335,<function functiondiffB at 0x000001E4ABF9F510>,<function functiondiffC at 0x000001E4ABF9F378>,<function functiondiffA at 0x000001E4ABF9F840>,,,,,1792.9526308999993,1830.292195599999,None,1824.8256904999998,None,1826.9256685,None,002,001,2022_Jun_13_1033,2leo,2021.2.3,59.99232098282447,
3,5,Plan a birthday party for your younger self when you turn eight,Stimuli/5A1.jpg,Stimuli/5A2.jpg,Stimuli/5A3.jpg,Stimuli/5B1.jpg,Stimuli/5B2.jpg,Stimuli/5B3.jpg,Stimuli/5C1.jpg,Stimuli/5C2.jpg,Stimuli/5C3.jpg,,,,,0,32,32,5,,,,,,,,1832.491779599999,None,1833.4920490999993,None,1839.4922162000003,None,"[0.304, -0.26]","[0.07, 0.393]","[-0.378, -0.136]","[-0.203, -0.347]","[0.399, -0.003]","[-0.2, 0.346]","[0.066, -0.395]","[0.306, 0.255]","[-0.377, 0.138]",,14.816857000001619,5.717425700002423,9.250646500002404,"[0.35462962962962963, 0.24814814814814815, -0.34444444444444444]","[-0.013888888888888888, 0.2324074074074074, -0.10925925925925926]","[1, 1, 1]","[0, 0, 0]","[0, 0, 0]","[5.716296400001738, 9.249243500000375, 14.815826500000185]",0.0003494000011414755,14.81602340000245,['A3'],['B2'],['C2'],['yellow'],['salmon'],['blue'],1860.5913402000006,None,3.0,1.6969539999990957,1860.5913402000006,None,1864.9077357000006,None,10.0,5.114455699998871,1869.0746055,None,10.0,4.4323398000015,1872.5576600999993,None,10.0,3.415129999999408,<function functionImportanceA at 0x000001E4ABF9F950>,<function functionImportanceB at 0x000001E4ABF9F6A8>,<function functionImportanceC at 0x000001E4A59C4B70>,,,10.0,3.080587899999955,0.0,5.114455699998871,0.0,2.9480636000007507,<function functiondiffA at 0x000001E4A76A7158>,<function functiondiffB at 0x000001E4ABF9F598>,<function functiondiffC at 0x000001E4AC364840>,,,,,1845.3134252,1876.1245538999992,None,1878.7743606999993,None,1881.5240935000002,None,002,001,2022_Jun_13_1033,2leo,2021.2.3,59.99232098282447,
3,2,Plan which ingredients you want to use for cooking dinner today,Stimuli/2A1.jpg,Stimuli/2A2.jpg,Stimuli/2A3.jpg,Stimuli/2B1.jpg,Stimuli/2B2.jpg,Stimuli/2B3.jpg,Stimuli/2C1.jpg,Stimuli/2C2.jpg,Stimuli/2C3.jpg,,,,,0,33,33,2,,,,,,,,1882.7572452999993,None,1883.7573104000003,None,1889.7574251000005,None,"[0.304, -0.26]","[-0.378, -0.136]","[0.07, 0.393]","[0.066, -0.395]","[-0.377, 0.138]","[0.306, 0.255]","[-0.203, -0.347]","[-0.2, 0.346]","[0.399, -0.003]",,3.3351095800026087,6.102041380003357,11.85195078000288,"[-0.37962962962962965, 0.05277777777777778, -0.19444444444444445]","[-0.1111111111111111, -0.33425925925925926, -0.30092592592592593]","[1, 1, 1]","[0, 0, 0]","[0, 0, 0]","[3.323324799999682, 6.090083999999479, 11.839710000000196]",0.011274480002612108,11.850897080003051,['A2'],['B1'],['C1'],['blue'],['salmon'],['yellow'],1908.2232743000004,None,8.0,1.713656700001593,1908.2232743000004,None,1921.2230894000004,None,10.0,2.5984016000002157,1913.3398106000004,None,10.0,9.997706000000107,1923.2565247999992,None,10.0,1.9657477000000654,<function functionImportanceB at 0x000001E4AC364B70>,<function functionImportanceA at 0x000001E4ABF9FC80>,<function functionImportanceC at 0x000001E4AC3647B8>,,,0.0,2.7477208000000246,4.0,2.5984016000002157,-0.0,3.5312380000013945,<function functiondiffA at 0x000001E4ABF9F0D0>,<function functiondiffC at 0x000001E4AC364158>,<function functiondiffB at 0x000001E4ABF9F400>,,,,,1895.9172454,1924.8896069999992,None,1930.6729620999995,None,1927.5064741000006,None,002,001,2022_Jun_13_1033,2leo,2021.2.3,59.99232098282447,
3,40,Plan to see a sports event ,Stimuli/40A1.jpg,Stimuli/40A2.jpg,Stimuli/40A3.jpg,Stimuli/40B1.jpg,Stimuli/40B2.jpg,Stimuli/40B3.jpg,Stimuli/40C1.jpg,Stimuli/40C2.jpg,Stimuli/40C3.jpg,,,,,0,34,34,40,,,,,,,,1932.9224388000002,None,1933.9227625000003,None,1939.9228686000006,None,"[-0.378, -0.136]","[0.07, 0.393]","[0.304, -0.26]","[-0.377, 0.138]","[0.306, 0.255]","[0.066, -0.395]","[-0.2, 0.346]","[0.399, -0.003]","[-0.203, -0.347]",,3.5319734800013975,7.633432480002739,17.915175280002586,"[0.3037037037037037, 0.24166666666666667, 0.3212962962962963]","[-0.19722222222222222, 0.19166666666666668, 0.02962962962962963]","[1, 1, 1]","[0, 0, 0]","[0, 0, 0]","[3.530331500000102, 7.631636400001298, 17.913136299999678]",0.0010316800016880734,17.914030680001815,['A3'],['B2'],['C2'],['yellow'],['blue'],['salmon'],1959.6720585999992,None,3.0,2.263776499999949,1959.6720585999992,None,1966.5385014000003,None,10.0,2.214841699998942,1962.2388064999996,None,10.0,2.1479653000005783,1964.1887377000003,None,-0.0,2.2818855000004987,<function functionImportanceB at 0x000001E4AC3648C8>,<function functionImportanceC at 0x000001E4AC364BF8>,<function functionImportanceA at 0x000001E4AC364F28>,,,-0.0,2.114354600000297,10.0,2.214841699998942,0.0,2.531105000000025,<function functiondiffA at 0x000001E4AC3646A8>,<function functiondiffB at 0x000001E4AC3642F0>,<function functiondiffC at 0x000001E4AC364378>,,,,,1941.2755629999992,1968.6719752000008,None,1970.838554,None,1973.3551590000006,None,002,001,2022_Jun_13_1033,2leo,2021.2.3,59.99232098282447,
3,24,Plan your Monday morning on a workday ,Stimuli/24A1.jpg,Stimuli/24A2.jpg,Stimuli/24A3.jpg,Stimuli/24B1.jpg,Stimuli/24B2.jpg,Stimuli/24B3.jpg,Stimuli/24C1.jpg,Stimuli/24C2.jpg,Stimuli/24C3.jpg,,,,,0,35,35,24,,,,,,,,1974.7548203999995,None,1975.7549399,None,1981.7550102999994,None,"[-0.203, -0.347]","[0.399, -0.003]","[-0.2, 0.346]","[0.066, -0.395]","[0.306, 0.255]","[-0.377, 0.138]","[0.304, -0.26]","[0.07, 0.393]","[-0.378, -0.136]",,3.0781140600010986,14.11147376000008,14.661492060000455,"[-0.14722222222222223, -0.3138888888888889, -0.32592592592592595]","[0.3212962962962963, 0.07037037037037037, -0.15]","[1, 1, 1]","[0, 0, 0]","[0, 0, 0]","[3.0628110999987257, 14.095868999998856, 14.645677799999248]",0.014485960000456544,14.660213560000557,['A3'],['B3'],['C3'],['yellow'],['blue'],['salmon'],1997.9874808000004,None,0.0,1.3300000999988697,1997.9874808000004,None,1999.3877826999997,None,10.0,2.5316022999995766,2001.9376616999998,None,-0.0,1.6651092000010976,2003.6210945000003,None,0.0,1.5485601000000315,<function functionImportanceA at 0x000001E4AC364400>,<function functionImportanceB at 0x000001E4AC3649D8>,<function functionImportanceC at 0x000001E4AC364EA0>,,,0.0,2.031782000000021,10.0,2.5316022999995766,10.0,1.6648100999991584,<function functiondiffC at 0x000001E4A59C4AE8>,<function functiondiffA at 0x000001E4AC364488>,<function functiondiffB at 0x000001E4ABF9F9D8>,,,,,1982.8560851999991,2007.2043558000005,None,2009.2540802000003,None,2005.1543134999993,None,002,001,2022_Jun_13_1033,2leo,2021.2.3,59.99232098282447,
3,32,Plan how you want to relax after a workday,Stimuli/32A1.jpg,Stimuli/32A2.jpg,Stimuli/32A3.jpg,Stimuli/32B1.jpg,Stimuli/32B2.jpg,Stimuli/32B3.jpg,Stimuli/32C1.jpg,Stimuli/32C2.jpg,Stimuli/32C3.jpg,,,,,0,36,36,32,,,,,,,,2010.4370787000007,None,2011.4373763999993,None,2017.4373094000002,None,"[0.304, -0.26]","[0.07, 0.393]","[-0.378, -0.136]","[0.066, -0.395]","[0.306, 0.255]","[-0.377, 0.138]","[-0.203, -0.347]","[0.399, -0.003]","[-0.2, 0.346]",,18.18479836000006,4.5686359600003925,9.40229656000156,"[0.26481481481481484, -0.17777777777777778, -0.49907407407407406, -0.4305555555555556]","[0.23981481481481481, -0.3194444444444444, -0.08796296296296297, -0.10277777777777777]","[1, 1, 1, 1]","[0, 0, 0, 0]","[0, 0, 0, 0]","[4.556647800000064, 9.39016570000058, 17.67310560000078, 18.172994200000176]",0.011190660001375363,18.18405286000052,['A3'],['B2'],['C1'],['blue'],['yellow'],['salmon'],2039.0531353000006,None,10.0,2.4141247999996267,2039.0531353000006,None,2048.3364361000004,None,10.0,3.4817213000005722,2051.5364019999997,None,10.0,2.6815868000012415,2041.5201213,None,10.0,5.698110899998937,<function functionImportanceC at 0x000001E4ABF9FBF8>,<function functionImportanceA at 0x000001E4AC364E18>,<function functionImportanceB at 0x000001E4ABF9FAE8>,,,7.0,2.3479806000013923,2.0,3.4817213000005722,0.0,3.7150500000007014,<function functiondiffC at 0x000001E4AC364268>,<function functiondiffA at 0x000001E4AC364510>,<function functiondiffB at 0x000001E4AC364730>,,,,,2020.4147386000004,2056.3363062000008,None,2058.536404799999,None,2053.4030411999993,None,002,001,2022_Jun_13_1033,2leo,2021.2.3,59.99232098282447,
3,33,Plan the items to decorate your Christmas tree,Stimuli/33A1.jpg,Stimuli/33A2.jpg,Stimuli/33A3.jpg,Stimuli/33B1.jpg,Stimuli/33B2.jpg,Stimuli/33B3.jpg,Stimuli/33C1.jpg,Stimuli/33C2.jpg,Stimuli/33C3.jpg,,,,,0,37,37,33,,,,,,,,2061.6023356999995,None,2062.6026906999996,None,2068.6027746,None,"[0.399, -0.003]","[-0.203, -0.347]","[-0.2, 0.346]","[0.07, 0.393]","[0.304, -0.26]","[-0.378, -0.136]","[0.306, 0.255]","[0.066, -0.395]","[-0.377, 0.138]",,8.424385979998988,4.674879379997947,10.841589279998516,"[-0.3824074074074074, 0.3490740740740741, -0.3509259259259259]","[-0.12962962962962962, 0.028703703703703703, 0.10185185185185185]","[1, 1, 1]","[0, 0, 0]","[0, 0, 0]","[4.658289200000581, 8.40820420000091, 10.824743700000909]",0.01575797999794304,10.840344779999214,['A1'],['B3'],['C3'],['blue'],['salmon'],['yellow'],2081.5853255,None,4.0,2.6137539000010293,2081.5853255,None,2084.8355059000005,None,10.0,3.4976440999998886,2087.7854436,None,3.0,2.632129800000257,2090.4519211999996,None,7.0,2.982513900000413,<function functionImportanceA at 0x000001E4ABF9F488>,<function functionImportanceB at 0x000001E4AC62EA60>,<function functionImportanceC at 0x000001E4AC62E488>,,,8.0,1.9313524999997753,6.0,3.4976440999998886,6.0,3.613735999999335,<function functiondiffB at 0x000001E4AC364AE8>,<function functiondiffC at 0x000001E4AC62E6A8>,<function functiondiffA at 0x000001E4AC364048>,,,,,2070.2911172000004,2100.251771200001,None,2093.4020616,None,2097.0352072999995,None,002,001,2022_Jun_13_1033,2leo,2021.2.3,59.99232098282447,
3,30,Plan your sport work out for tomorrow,Stimuli/30A1.jpg,Stimuli/30A2.jpg,Stimuli/30A3.jpg,Stimuli/30B1.jpg,Stimuli/30B2.jpg,Stimuli/30B3.jpg,Stimuli/30C1.jpg,Stimuli/30C2.jpg,Stimuli/30C3.jpg,,,,,0,38,38,30,,,,,,,,2101.5846435000003,None,2102.5849775000006,None,2108.5849510000007,None,"[-0.2, 0.346]","[0.399, -0.003]","[-0.203, -0.347]","[-0.377, 0.138]","[0.306, 0.255]","[0.066, -0.395]","[-0.378, -0.136]","[0.07, 0.393]","[0.304, -0.26]",,12.658720199999152,3.658858799999507,7.792192199998681,"[-0.3824074074074074, -0.3472222222222222, -0.24166666666666667]","[0.19907407407407407, -0.11481481481481481, -0.2833333333333333]","[1, 1, 1]","[0, 0, 0]","[0, 0, 0]","[3.6447076000004017, 7.77780569999959, 12.644673200000398]",0.013432599998850492,12.657513899999685,['A3'],['B1'],['C1'],['yellow'],['salmon'],['blue'],2122.8677176,None,8.0,2.013316399999894,2122.8677176,None,2124.9512397,None,10.0,2.614820200000395,2130.351126899999,None,10.0,2.4486513000010746,2127.5844779,None,7.0,2.6983715999995184,<function functionImportanceA at 0x000001E4AC62ED90>,<function functionImportanceC at 0x000001E4AC62EC80>,<function functionImportanceB at 0x000001E4AC62EAE8>,,,4.0,2.264998900000137,6.0,2.614820200000395,0.0,1.6136998000001768,<function functiondiffC at 0x000001E4AC364C80>,<function functiondiffB at 0x000001E4AC364620>,<function functiondiffA at 0x000001E4AC364950>,,,,,2109.7388088000007,2137.2508725999996,None,2135.6175745,None,2132.7344639000003,None,002,001,2022_Jun_13_1033,2leo,2021.2.3,59.99232098282447,
3,22,Plan a beach day with your friends,Stimuli/22A1.jpg,Stimuli/22A2.jpg,Stimuli/22A3.jpg,Stimuli/22B1.jpg,Stimuli/22B2.jpg,Stimuli/22B3.jpg,Stimuli/22C1.jpg,Stimuli/22C2.jpg,Stimuli/22C3.jpg,,,,,0,39,39,22,,,,,,,,2139.0336076000003,None,2140.034049600001,None,2146.0339409000007,None,"[-0.377, 0.138]","[0.306, 0.255]","[0.066, -0.395]","[-0.378, -0.136]","[0.07, 0.393]","[0.304, -0.26]","[-0.2, 0.346]","[0.399, -0.003]","[-0.203, -0.347]",,11.412288440002158,6.99593434000235,15.063965940002163,"[-0.3611111111111111, -0.33055555555555555]","[-0.08055555555555556, 0.07777777777777778]","[1, 1]","[0, 0]","[0, 0]","[6.988310100001399, 11.405005900000106]",0.006875740002215025,15.061578340000779,['A1'],['B1'],['C2'],['blue'],['salmon'],['yellow'],2162.6999293999997,None,7.0,2.0791854999988573,2162.6999293999997,None,2164.8500975999996,None,10.0,2.181122800000594,2168.5500773999993,None,10.0,1.4486856000003172,2167.0667768000003,None,10.0,1.4987659999987955,<function functionImportanceA at 0x000001E4ABF9F158>,<function functionImportanceC at 0x000001E4AC62E950>,<function functionImportanceB at 0x000001E4AC62E048>,,,-0.0,2.1145405999996,3.0,2.181122800000594,6.0,2.8809006999999838,<function functiondiffB at 0x000001E4AC62E1E0>,<function functiondiffC at 0x000001E4AC62ED08>,<function functiondiffA at 0x000001E4AC62E0D0>,,,,,2147.16078,2180.9996229000008,None,2169.9999831000005,None,2172.899896000001,None,002,001,2022_Jun_13_1033,2leo,2021.2.3,59.99232098282447,
3,31,Plan your order at a restaurant    ,Stimuli/31A1.jpg,Stimuli/31A2.jpg,Stimuli/31A3.jpg,Stimuli/31B1.jpg,Stimuli/31B2.jpg,Stimuli/31B3.jpg,Stimuli/31C1.jpg,Stimuli/31C2.jpg,Stimuli/31C3.jpg,,,,,0,40,40,31,,,,,,,,2182.6324569000008,None,2183.6329078,None,2189.6328505,None,"[-0.2, 0.346]","[-0.203, -0.347]","[0.399, -0.003]","[-0.378, -0.136]","[0.304, -0.26]","[0.07, 0.393]","[-0.377, 0.138]","[0.066, -0.395]","[0.306, 0.255]",,4.176480240003002,9.460035040003277,12.526864840003327,"[-0.24166666666666667, 0.35648148148148145, 0.3055555555555556]","[0.34444444444444444, -0.2537037037037037, 0.21481481481481482]","[1, 1, 1]","[0, 0, 0]","[0, 0, 0]","[4.162991200000761, 9.446162600001117, 12.512690100000327]",0.013081440003588796,12.525518540003759,['A1'],['B2'],['C3'],['salmon'],['blue'],['yellow'],2205.1822176000005,None,3.0,1.5799200000001292,2205.1822176000005,None,2208.2155943,None,10.0,3.698873100000128,2212.1321905999994,None,10.0,2.2819937000003847,2210.5820731000003,None,10.0,1.5644792999992205,<function functionImportanceA at 0x000001E4AC62E2F0>,<function functionImportanceC at 0x000001E4AC364D90>,<function functionImportanceB at 0x000001E4ABF9F620>,,,2.0,2.3644551999987016,10.0,3.698873100000128,10.0,1.764349900000525,<function functiondiffB at 0x000001E4AC62E9D8>,<function functiondiffC at 0x000001E4AC62EB70>,<function functiondiffA at 0x000001E4AC62E730>,,,,,2192.2020637999995,2218.5154846000005,None,2214.3986387000004,None,2216.1820405,None,002,001,2022_Jun_13_1033,2leo,2021.2.3,59.99232098282447,
3,9,Plan a picnic with friends,Stimuli/9A1.jpg,Stimuli/9A2.jpg,Stimuli/9A3.jpg,Stimuli/9B1.jpg,Stimuli/9B2.jpg,Stimuli/9B3.jpg,Stimuli/9C1.jpg,Stimuli/9C2.jpg,Stimuli/9C3.jpg,,,,,0,41,41,9,,,,,,,,2220.048168199999,None,2221.0485155999995,None,2227.0485946999997,None,"[-0.377, 0.138]","[0.306, 0.255]","[0.066, -0.395]","[-0.378, -0.136]","[0.07, 0.393]","[0.304, -0.26]","[-0.2, 0.346]","[0.399, -0.003]","[-0.203, -0.347]",,16.65809936000187,7.207403160002286,11.45782096000221,"[0.046296296296296294, -0.17777777777777778, -0.44166666666666665]","[0.37592592592592594, -0.33240740740740743, 0.12222222222222222]","[1, 1, 1]","[0, 0, 0]","[0, 0, 0]","[7.196445599998697, 11.44655369999964, 16.64753009999913]",0.010164460001760744,16.656344060002084,['A1'],['B2'],['C3'],['blue'],['yellow'],['salmon'],2249.5810335000006,None,7.0,1.8119792999987112,2249.5810335000006,None,2256.3481732,None,10.0,4.398355900000752,2252.714487699999,None,10.0,3.3481240999990405,2260.6981486999994,None,10.0,4.9320260000004055,<function functionImportanceB at 0x000001E4AC62E840>,<function functionImportanceA at 0x000001E4AC62EBF8>,<function functionImportanceC at 0x000001E4AC62EEA0>,,,0.0,2.2647455999995145,0.0,4.398355900000752,6.0,1.8811148000004323,<function functiondiffA at 0x000001E4AC62E7B8>,<function functiondiffB at 0x000001E4AC62E158>,<function functiondiffC at 0x000001E4AC62E378>,,,,,2232.4694648000004,2264.6140643,None,2266.7974297,None,2268.7805097,None,002,001,2022_Jun_13_1033,2leo,2021.2.3,59.99232098282447,
3,28,Plan a one-week camping trip in Spain,Stimuli/28A1.jpg,Stimuli/28A2.jpg,Stimuli/28A3.jpg,Stimuli/28B1.jpg,Stimuli/28B2.jpg,Stimuli/28B3.jpg,Stimuli/28C1.jpg,Stimuli/28C2.jpg,Stimuli/28C3.jpg,,,,,0,42,42,28,,,,,,,,2270.3634781,None,2271.363740499999,None,2277.3639537,None,"[0.066, -0.395]","[-0.377, 0.138]","[0.306, 0.255]","[0.304, -0.26]","[-0.378, -0.136]","[0.07, 0.393]","[-0.203, -0.347]","[-0.2, 0.346]","[0.399, -0.003]",,18.148065400000633,28.014777700000195,39.31479460000082,"[0.05648148148148148, 0.2833333333333333, -0.14537037037037037]","[-0.4064814814814815, -0.22314814814814815, 0.2814814814814815]","[1, 1, 1]","[0, 0, 0]","[0, 0, 0]","[18.130833499999426, 27.997273700000733, 39.29695659999925]",0.01681060000009893,39.31372630000078,['A1'],['B1'],['C2'],['blue'],['yellow'],['salmon'],2318.295692399999,None,3.0,1.6634694000003947,2318.295692399999,None,2320.079436599999,None,10.0,2.448058799998762,2324.0625741000003,None,10.0,1.3652422999984992,2322.5294003,None,10.0,1.515102499999557,<function functionImportanceA at 0x000001E4AC62E620>,<function functionImportanceC at 0x000001E4AC62E400>,<function functionImportanceB at 0x000001E4AC62EE18>,,,10.0,1.3313803000000917,10.0,2.448058799998762,10.0,3.0975228999996034,<function functiondiffB at 0x000001E4AC62E8C8>,<function functiondiffC at 0x000001E4AC9E3378>,<function functiondiffA at 0x000001E4AC62E598>,,,,,2278.5138179000005,2330.2455456000007,None,2325.3792049000003,None,2328.4955071999993,None,002,001,2022_Jun_13_1033,2leo,2021.2.3,59.99232098282447,
3,36,Plan your shopping for new clothing,Stimuli/36A1.jpg,Stimuli/36A2.jpg,Stimuli/36A3.jpg,Stimuli/36B1.jpg,Stimuli/36B2.jpg,Stimuli/36B3.jpg,Stimuli/36C1.jpg,Stimuli/36C2.jpg,Stimuli/36C3.jpg,,,,,0,43,43,36,,,,,,,,2331.0953119000005,None,2332.095655699999,None,2338.0957068999996,None,"[0.306, 0.255]","[-0.377, 0.138]","[0.066, -0.395]","[0.07, 0.393]","[-0.378, -0.136]","[0.304, -0.26]","[0.399, -0.003]","[-0.2, 0.346]","[-0.203, -0.347]",,12.044585940000616,8.195191740001974,4.812089140001262,"[-0.20185185185185187, 0.05555555555555555, 0.2962962962962963]","[0.2657407407407407, 0.35555555555555557, 0.29814814814814816]","[1, 1, 1]","[0, 0, 0]","[0, 0, 0]","[4.796354699999938, 8.179834999999002, 12.029508399999031]",0.014687940001749666,12.043965440001557,['A1'],['B1'],['C2'],['yellow'],['salmon'],['blue'],2351.7283009000002,None,7.0,1.996360499999355,2351.7283009000002,None,2353.7950698000004,None,3.0,3.914519300000393,2357.7116530999992,None,5.0,2.1152720999998564,2359.8615396999994,None,9.0,2.5484749999995984,<function functionImportanceA at 0x000001E4AC62EF28>,<function functionImportanceB at 0x000001E4AC9E3620>,<function functionImportanceC at 0x000001E4AC9E3730>,,,4.0,2.2981846000002406,-0.0,3.914519300000393,3.0,1.2478115000012622,<function functiondiffC at 0x000001E4A76A7378>,<function functiondiffA at 0x000001E4AC364598>,<function functiondiffB at 0x000001E4A76A7F28>,,,,,2339.2138116000006,2365.0615299,None,2367.378192,None,2362.3783255,None,002,001,2022_Jun_13_1033,2leo,2021.2.3,59.99232098282447,
3,10,Plan a restaurant visit with your family on the weekend ,Stimuli/10A1.jpg,Stimuli/10A2.jpg,Stimuli/10A3.jpg,Stimuli/10B1.jpg,Stimuli/10B2.jpg,Stimuli/10B3.jpg,Stimuli/10C1.jpg,Stimuli/10C2.jpg,Stimuli/10C3.jpg,,,,,0,44,44,10,,,,,,,,2368.1446166999995,None,2369.1445502999995,None,2375.1447011,None,"[0.07, 0.393]","[-0.378, -0.136]","[0.304, -0.26]","[0.306, 0.255]","[-0.377, 0.138]","[0.066, -0.395]","[0.399, -0.003]","[-0.2, 0.346]","[-0.203, -0.347]",,20.66678580000371,10.301797900003294,2.4012807000035536,"[-0.14814814814814814, 0.2777777777777778, 0.3277777777777778]","[-0.35555555555555557, 0.2361111111111111, -0.25]","[1, 1, 1]","[0, 0, 0]","[0, 0, 0]","[2.384366600001158, 10.300861300000179, 20.65036350000082]",0.015805100003490224,20.6660045000026,['A3'],['B1'],['C3'],['yellow'],['salmon'],['blue'],2400.210436199999,None,7.0,2.2474060999993526,2400.210436199999,None,2404.6603061999995,None,10.0,1.9152918999989197,2409.1766957,None,10.0,5.464624299998832,2402.5105439,None,10.0,2.0144579999996495,<function functionImportanceC at 0x000001E4AC9E3510>,<function functionImportanceA at 0x000001E4AC9E3488>,<function functionImportanceB at 0x000001E4AC9E32F0>,,,0.0,2.1977153000007092,2.0,1.9152918999989197,7.0,4.714803299999403,<function functiondiffC at 0x000001E4AC9E3400>,<function functiondiffB at 0x000001E4AC9E3840>,<function functiondiffA at 0x000001E4AC9E3B70>,,,,,2379.0908603999997,2419.660208199999,None,2415.6768721000008,None,2411.9436337999996,None,002,001,2022_Jun_13_1033,2leo,2021.2.3,59.99232098282447,
