Condition,N_Scenario,written_scenario,ImageA1,ImageA2,ImageA3,ImageB1,ImageB2,ImageB3,ImageC1,ImageC2,ImageC3,trials_2.thisRepN,trials_2.thisTrialN,trials_2.thisN,trials_2.thisIndex,trial.thisRepN,trial.thisTrialN,trial.thisN,trial.thisIndex,button_2.started,button_2.stopped,button_2.numClicks,button_2.timesOn,button_2.timesOff,text.started,text.stopped,fixationcross1_started,fixationcross1_stopped,Scenario_started,Scenario_stopped,fixationcross2_started,fixationcross2_stopped,A1pos,A2pos,A3pos,B1pos,B2pos,B3pos,C1pos,C2pos,C3pos,﻿Imagesdecision_started,decisiontimeA,decisiontimeB,decisiontimeC,mouse_x,mouse_y,mouse_leftButton,mouse_midButton,mouse_rightButton,mouse_time,mouse_started,mouse_stopped,clicked_optionA,clicked_optionB,clicked_optionC,colour_category_A,colour_category_B,colour_category_C,question_confidence_started,question_confidence_stopped,slider_confidence_response,slider_confidence_rt,slider_confidence_started,slider_confidence_stopped,question_valueA_started,question_valueA_stopped,slider_valueA_response,slider_valueA_rt,question_valueC_started,question_valueC_stopped,slider_valueC_response,slider_valueC_rt,question_valueB_started,question_valueB_stopped,slider_valueB_response,slider_valueB_rt,Importance_First,Importance_Second,Importance_Third,question_diff_started,question_diff_stopped,slider_diffA_response,slider_diffA_rt,slider_diffB_response,slider_diffB_rt,slider_diffC_response,slider_diffC_rt,diff_First,diff_Second,diff_Third,button_3_started,button_3_stopped,text_2_started,text_2_stopped,Imagesdecision_started,question_diffA_started,question_diffA_stopped,question_diffC_started,question_diffC_stopped,question_diffB_started,question_diffB_stopped,participant,session,date,expName,psychopyVersion,frameRate,
3,2,Organiza una fiesta para celebrar tu cumpleaños,Stimuli/2A1t.jpg,Stimuli/2A2t.jpg,Stimuli/2A3t.jpg,Stimuli/2B1t.jpg,Stimuli/2B2t.jpg,Stimuli/2B3t.jpg,Stimuli/2C1t.jpg,Stimuli/2C2t.jpg,Stimuli/2C3t.jpg,0,0,0,0,,,,,19.95490320799945,None,1,[20.11587574999976],[20.11587908399997],19.95490320799945,None,76.40152616599971,None,77.41798116599966,None,83.40998516599939,None,"[-0.203, -0.347]","[0.399, -0.003]","[-0.2, 0.346]","[0.066, -0.395]","[0.306, 0.255]","[-0.377, 0.138]","[0.304, -0.26]","[0.07, 0.393]","[-0.378, -0.136]",85.55509558299946,55.911939541998436,45.69595824999851,29.03091195899833,"[0.30925925925925923, 0.1175925925925926, 0.10462962962962963, 0.35462962962962963]","[-0.25092592592592594, 0.35555555555555557, -0.3314814814814815, -0.005555555555555556]","[1, 1, 1, 1]","[0, 0, 0, 0]","[0, 0, 0, 0]","[29.027603208000073, 33.21839195800021, 45.69326812500003, 55.909544707999885]",0.001782416999049019,55.911261166998884,['A2'],['B1'],['C1'],['salmon'],['blue'],['yellow'],141.9638827079998,None,5.0,24.42802845799997,141.9638827079998,None,166.89675687499948,None,5.0,22.92025299999932,189.3485652499994,None,6.0,13.881441042000006,203.68055599999934,None,5.0,7.4632810840003,<function functionImportanceAt at 0x7fca7e88bf28>,<function functionImportanceCt at 0x7fca7e88bd08>,<function functionImportanceBt at 0x7fca7e88bea0>,235.6078173750002,None,4.0,22.92025299999932,3.0,12.379892375000054,3.0,6.055325000000266,<function functiondiffAt at 0x7fca78d9dea0>,<function functiondiffBt at 0x7fca78d9da60>,<function functiondiffCt at 0x7fca78d9d7b8>,,,,,,,,,,,,patient1,001,2024_Jan_30_1359,2leo,2021.2.3,None,
3,3,Planea una semana de vacaciones,Stimuli/3A1t.jpg,Stimuli/3A2t.jpg,Stimuli/3A3t.jpg,Stimuli/3B1t.jpg,Stimuli/3B2t.jpg,Stimuli/3B3t.jpg,Stimuli/3C1t.jpg,Stimuli/3C2t.jpg,Stimuli/3C3t.jpg,0,1,1,1,,,,,,,,,,,,241.17597729099998,None,242.17347145799977,None,248.16521333299988,None,"[0.399, -0.003]","[-0.203, -0.347]","[-0.2, 0.346]","[0.306, 0.255]","[0.066, -0.395]","[-0.377, 0.138]","[0.07, 0.393]","[0.304, -0.26]","[-0.378, -0.136]",250.7316681249995,54.30594304166607,42.23247729166633,24.22569729166662,"[0.05555555555555555, 0.2675925925925926, 0.35833333333333334]","[0.3509259259259259, 0.2351851851851852, 0.0]","[1, 1, 1]","[0, 0, 0]","[0, 0, 0]","[24.22289679200003, 42.23014641700047, 54.30407800000012]",0.001265166666598816,54.30539670766666,['A1'],['B1'],['C1'],['yellow'],['blue'],['salmon'],305.5231787499997,None,4.0,4.695283540999299,305.5231787499997,None,328.62459750000016,None,5.0,8.637104749999708,319.3632928749994,None,5.0,8.963506583000708,310.64701958299975,None,6.0,8.696107167000264,<function functionImportanceBt at 0x7fca7f8077b8>,<function functionImportanceCt at 0x7fca7f807268>,<function functionImportanceAt at 0x7fca7f8078c8>,368.7562257079999,None,4.0,8.637104749999708,2.0,5.463581083999998,3.0,14.11247645900039,<function functiondiffCt at 0x7fca6a5f3d08>,<function functiondiffAt at 0x7fca6a5f3158>,<function functiondiffBt at 0x7fca6a5f3bf8>,,,,,,,,,,,,patient1,001,2024_Jan_30_1359,2leo,2021.2.3,None,
3,5,Planee una fiesta de cumpleaños para su yo más joven cuando cumpla ocho años,Stimuli/5A1.jpg,Stimuli/5A2.jpg,Stimuli/5A3.jpg,Stimuli/5B1.jpg,Stimuli/5B2.jpg,Stimuli/5B3.jpg,Stimuli/5C1.jpg,Stimuli/5C2.jpg,Stimuli/5C3.jpg,,,,,0,0,0,5,,,,,,,,414.335304833,None,415.31356941600006,None,421.30949749999945,None,"[0.306, 0.255]","[-0.377, 0.138]","[0.066, -0.395]","[0.399, -0.003]","[-0.2, 0.346]","[-0.203, -0.347]","[0.07, 0.393]","[-0.378, -0.136]","[0.304, -0.26]",,33.14878587466592,67.63123674966573,8.227087833665792,"[0.027777777777777776, 0.2601851851851852, -0.3296296296296296, -0.32037037037037036, 0.06481481481481481, 0.375]","[0.33611111111111114, -0.25833333333333336, 0.09722222222222222, -0.13703703703703704, -0.3675925925925926, -0.020370370370370372]","[1, 1, 1, 1, 1, 1]","[0, 0, 0, 0, 0, 0]","[0, 0, 0, 0, 0, 0]","[8.22297024999989, 15.595526791999873, 33.1453033329999, 45.73606225000003, 62.0777675420004, 67.62746704199981]",0.0028919996657350566,67.63025854166608,['A2'],['B1'],['C1'],['blue'],['yellow'],['salmon'],491.88972579099936,None,4.0,11.110416000000441,491.88972579099936,None,529.6244447909994,None,4.0,9.170062124999276,516.0393831249994,None,4.0,12.886773125000218,503.40673312499985,None,3.0,12.853553582999666,<function functionImportanceB at 0x7fca896650d0>,<function functionImportanceC at 0x7fca896656a8>,<function functionImportanceA at 0x7fca896657b8>,,,4.0,10.912758665999718,3.0,11.179532749999453,3.0,9.170062124999276,<function functiondiffA at 0x7fca6a5e5048>,<function functiondiffC at 0x7fca6a5e56a8>,<function functiondiffB at 0x7fca6a5e5d08>,373.3758871659993,None,373.3758871659993,None,423.77017224999963,538.6899208329996,None,549.022381625,None,557.3750184579994,None,patient1,001,2024_Jan_30_1359,2leo,2021.2.3,None,
3,13,Planea una cita romántica este fin de semana,Stimuli/13A1.jpg,Stimuli/13A2.jpg,Stimuli/13A3.jpg,Stimuli/13B1.jpg,Stimuli/13B2.jpg,Stimuli/13B3.jpg,Stimuli/13C1.jpg,Stimuli/13C2.jpg,Stimuli/13C3.jpg,,,,,0,1,1,13,,,,,,,,567.7085815829996,None,568.7020445409999,None,574.6972788749999,None,"[0.066, -0.395]","[0.306, 0.255]","[-0.377, 0.138]","[-0.203, -0.347]","[0.399, -0.003]","[-0.2, 0.346]","[0.304, -0.26]","[0.07, 0.393]","[-0.378, -0.136]",,34.465119249665804,16.6158201666658,8.557639582666525,"[0.05277777777777778, 0.35833333333333334, 0.09537037037037037]","[0.37777777777777777, 0.007407407407407408, -0.3537037037037037]","[1, 1, 1]","[0, 0, 0]","[0, 0, 0]","[8.554750749999585, 16.613327041999582, 34.46320412499972]",0.001467957666136499,34.46394574966598,['A1'],['B2'],['C2'],['blue'],['salmon'],['yellow'],610.8046610829997,None,4.0,4.646621875000164,610.8046610829997,None,615.5080183749997,None,5.0,7.780493249999381,623.290777833,None,5.0,5.037489999999707,628.3592579159995,None,5.0,9.214091709000058,<function functionImportanceA at 0x7fca7e963bf8>,<function functionImportanceC at 0x7fca7e963400>,<function functionImportanceB at 0x7fca7e963730>,,,3.0,5.945734624999204,3.0,9.488763790999656,4.0,7.780493249999381,<function functiondiffB at 0x7fca6a5e51e0>,<function functiondiffC at 0x7fca6a5e5b70>,<function functiondiffA at 0x7fca6a5e59d8>,,,,,575.8557815409995,653.0380031249997,None,647.0555274999997,None,637.5581241250002,None,patient1,001,2024_Jan_30_1359,2leo,2021.2.3,None,
3,35,Planifica cómo quieres hacer tus compras,Stimuli/35A1.jpg,Stimuli/35A2.jpg,Stimuli/35A3.jpg,Stimuli/35B1.jpg,Stimuli/35B2.jpg,Stimuli/35B3.jpg,Stimuli/35C1.jpg,Stimuli/35C2.jpg,Stimuli/35C3.jpg,,,,,0,2,2,35,,,,,,,,658.500432666,None,659.505718208,None,665.4973728329996,None,"[-0.378, -0.136]","[0.304, -0.26]","[0.07, 0.393]","[-0.377, 0.138]","[0.066, -0.395]","[0.306, 0.255]","[-0.2, 0.346]","[-0.203, -0.347]","[0.399, -0.003]",,34.066763541999535,26.734174958999574,7.662906667000243,"[-0.15833333333333333, 0.07592592592592592, 0.05277777777777778]","[-0.2953703703703704, -0.3712962962962963, 0.3314814814814815]","[1, 1, 1]","[0, 0, 0]","[0, 0, 0]","[7.65716091700051, 26.72884166699987, 34.061715124999864]",0.004309834000196133,34.06526883399965,['A3'],['B2'],['C2'],['blue'],['salmon'],['yellow'],701.1556795409997,None,5.0,8.73868154200045,701.1556795409997,None,719.5558584999999,None,5.0,11.896655207999174,709.9083827909999,None,5.0,9.631265166000048,731.4722174999997,None,5.0,5.32356612500007,<function functionImportanceC at 0x7fca78d9dbf8>,<function functionImportanceA at 0x7fca78d9d950>,<function functionImportanceB at 0x7fca78d9d6a8>,,,3.0,9.696320666000247,2.0,6.4709555829995224,3.0,11.896655207999174,<function functiondiffB at 0x7fc9c834a598>,<function functiondiffC at 0x7fc9c834a510>,<function functiondiffA at 0x7fc9c834a620>,,,,,666.598280708,750.1902564579996,None,743.2886112079996,None,736.8217897079994,None,patient1,001,2024_Jan_30_1359,2leo,2021.2.3,None,
3,24,Planifica tu lunes por la mañana en un día laboral,Stimuli/24A1.jpg,Stimuli/24A2.jpg,Stimuli/24A3.jpg,Stimuli/24B1.jpg,Stimuli/24B2.jpg,Stimuli/24B3.jpg,Stimuli/24C1.jpg,Stimuli/24C2.jpg,Stimuli/24C3.jpg,,,,,0,3,3,24,,,,,,,,759.4075184579997,None,760.4048015409999,None,766.3970257499996,None,"[0.066, -0.395]","[0.306, 0.255]","[-0.377, 0.138]","[-0.203, -0.347]","[0.399, -0.003]","[-0.2, 0.346]","[0.304, -0.26]","[0.07, 0.393]","[-0.378, -0.136]",,25.204842708332762,19.014217291332898,31.48038829133293,"[0.4351851851851852, -0.3333333333333333, 0.2861111111111111]","[-0.017592592592592594, 0.10277777777777777, -0.2518518518518518]","[1, 1, 1]","[0, 0, 0]","[0, 0, 0]","[18.998304791999544, 25.189224458000353, 31.46411625000019]",0.014895583332872775,31.47895145833263,['A3'],['B2'],['C1'],['salmon'],['blue'],['yellow'],799.421571291,None,5.0,6.686124583000492,799.421571291,None,806.1407758750001,None,5.0,11.629454582999642,817.7730599159995,None,5.0,9.70536033299959,827.4892995829996,None,5.0,7.397249833000387,<function functionImportanceA at 0x7fc9c834a2f0>,<function functionImportanceC at 0x7fc9c834ab70>,<function functionImportanceB at 0x7fc9c834aa60>,,,4.0,13.456950415999927,3.0,4.722201374999713,3.0,11.629454582999642,<function functiondiffC at 0x7fca78dafd90>,<function functiondiffB at 0x7fca78daff28>,<function functiondiffA at 0x7fca78dafae8>,,,,,767.470885916,850.7207734160002,None,834.8910421659994,None,845.9887500409995,None,patient1,001,2024_Jan_30_1359,2leo,2021.2.3,None,
3,10,Planifique una visita a un restaurante con su familia el fin de semana ,Stimuli/10A1.jpg,Stimuli/10A2.jpg,Stimuli/10A3.jpg,Stimuli/10B1.jpg,Stimuli/10B2.jpg,Stimuli/10B3.jpg,Stimuli/10C1.jpg,Stimuli/10C2.jpg,Stimuli/10C3.jpg,,,,,0,4,4,10,,,,,,,,863.6739753749998,None,864.671780791,None,870.6631726659998,None,"[0.306, 0.255]","[-0.377, 0.138]","[0.066, -0.395]","[0.399, -0.003]","[-0.2, 0.346]","[-0.203, -0.347]","[0.07, 0.393]","[-0.378, -0.136]","[0.304, -0.26]",,10.16821475100005,15.60191529199983,24.051172333999602,"[0.2851851851851852, -0.15648148148148147, 0.11481481481481481]","[0.22037037037037038, 0.29814814814814816, 0.3398148148148148]","[1, 1, 1]","[0, 0, 0]","[0, 0, 0]","[10.15671304100033, 15.589842207999936, 24.038734415999897]",0.011023834000297938,24.049667041999783,['A1'],['B2'],['C1'],['salmon'],['blue'],['yellow'],897.0711514579998,None,7.0,9.297625541999878,897.0711514579998,None,920.3565398330002,None,5.0,7.821000791000188,928.145622125,None,5.0,10.304326124999534,907.190398916,None,6.0,13.912599082999805,<function functionImportanceB at 0x7fca42420ea0>,<function functionImportanceA at 0x7fca42420048>,<function functionImportanceC at 0x7fca424208c8>,,,3.0,5.488430915999743,4.0,7.122884750000594,3.0,7.821000791000188,<function functiondiffC at 0x7fca424200d0>,<function functiondiffA at 0x7fca42420158>,<function functiondiffB at 0x7fca42420510>,,,,,872.5451484999994,945.670075125,None,938.4711910409997,None,951.8523862909997,None,patient1,001,2024_Jan_30_1359,2leo,2021.2.3,None,
3,40,Planea ver un evento deportivo ,Stimuli/40A1.jpg,Stimuli/40A2.jpg,Stimuli/40A3.jpg,Stimuli/40B1.jpg,Stimuli/40B2.jpg,Stimuli/40B3.jpg,Stimuli/40C1.jpg,Stimuli/40C2.jpg,Stimuli/40C3.jpg,,,,,0,5,5,40,,,,,,,,957.7736924579995,None,958.7681690829995,None,964.7627682909997,None,"[-0.378, -0.136]","[0.304, -0.26]","[0.07, 0.393]","[-0.2, 0.346]","[-0.203, -0.347]","[0.399, -0.003]","[-0.377, 0.138]","[0.066, -0.395]","[0.306, 0.255]",,21.612694125667076,7.372993250667605,15.105248834667691,"[0.3731481481481482, -0.3768518518518518, 0.30185185185185187]","[0.027777777777777776, 0.12222222222222222, -0.23981481481481481]","[1, 1, 1]","[0, 0, 0]","[0, 0, 0]","[7.361120417000166, 15.093275292000726, 21.60153162500046]",0.010572750667051878,21.61201295966748,['A2'],['B3'],['C1'],['blue'],['yellow'],['salmon'],988.0214525000001,None,6.0,10.805527208000058,988.0214525000001,None,1023.238539291,None,5.0,8.5972575830001,998.8571242500002,None,6.0,12.23016591600026,1011.1557117499997,None,7.0,12.121084749999682,<function functionImportanceC at 0x7fc9c834ad90>,<function functionImportanceB at 0x7fc9c834ae18>,<function functionImportanceA at 0x7fc9c834abf8>,,,4.0,8.32957450000049,3.0,5.702872125000795,3.0,8.5972575830001,<function functiondiffC at 0x7fca42434bf8>,<function functiondiffB at 0x7fca424346a8>,<function functiondiffA at 0x7fca42434510>,,,,,965.9234940830002,1045.104106791,None,1031.820010458,None,1039.4210944999995,None,patient1,001,2024_Jan_30_1359,2leo,2021.2.3,None,
3,16,Planifica un delicioso pastel para el cumpleaños de un amigo,Stimuli/16A1.jpg,Stimuli/16A2.jpg,Stimuli/16A3.jpg,Stimuli/16B1.jpg,Stimuli/16B2.jpg,Stimuli/16B3.jpg,Stimuli/16C1.jpg,Stimuli/16C2.jpg,Stimuli/16C3.jpg,,,,,0,6,6,16,,,,,,,,1052.9567549579997,None,1053.9529714999999,None,1059.9455049580001,None,"[-0.377, 0.138]","[0.066, -0.395]","[0.306, 0.255]","[-0.2, 0.346]","[-0.203, -0.347]","[0.399, -0.003]","[-0.378, -0.136]","[0.304, -0.26]","[0.07, 0.393]",,17.14235012433346,28.98470874933355,20.276463749333743,"[-0.30092592592592593, -0.29814814814814816, 0.42777777777777776]","[0.11296296296296296, -0.10185185185185185, 0.006481481481481481]","[1, 1, 1]","[0, 0, 0]","[0, 0, 0]","[17.135331874999792, 20.268548125000052, 28.976948249999623]",0.00659720833391475,28.98277537433387,['A1'],['B3'],['C1'],['blue'],['salmon'],['yellow'],1090.5374765409997,None,6.0,6.778632333999667,1090.5374765409997,None,1102.255111333,None,6.0,5.720341582999936,1108.0065474579997,None,5.0,14.346999667000091,1097.389171416,None,6.0,4.903811291000238,<function functionImportanceB at 0x7fca78d9d2f0>,<function functionImportanceA at 0x7fca78d9d620>,<function functionImportanceC at 0x7fca78d9db70>,,,4.0,14.863293290999536,4.0,10.337858500000038,4.0,5.720341582999936,<function functiondiffB at 0x7fca6ba3d8c8>,<function functiondiffA at 0x7fca6ba3d620>,<function functiondiffC at 0x7fca6ba3d1e0>,,,,,1061.0650110830002,1132.7044820829997,None,1147.5702807910002,None,1122.370333541,None,patient1,001,2024_Jan_30_1359,2leo,2021.2.3,None,
3,8,Planifica el interior de tu salón,Stimuli/8A1.jpg,Stimuli/8A2.jpg,Stimuli/8A3.jpg,Stimuli/8B1.jpg,Stimuli/8B2.jpg,Stimuli/8B3.jpg,Stimuli/8C1.jpg,Stimuli/8C2.jpg,Stimuli/8C3.jpg,,,,,0,7,7,8,,,,,,,,1159.5896291660001,None,1160.5833348749993,None,1166.5788327909995,None,"[0.07, 0.393]","[-0.378, -0.136]","[0.304, -0.26]","[0.399, -0.003]","[-0.2, 0.346]","[-0.203, -0.347]","[0.306, 0.255]","[-0.377, 0.138]","[0.066, -0.395]",,31.033386208333468,26.65170295833377,22.202319333333435,"[0.049074074074074076, 0.34814814814814815, 0.05740740740740741]","[-0.35648148148148145, -0.03425925925925926, 0.3314814814814815]","[1, 1, 1]","[0, 0, 0]","[0, 0, 0]","[22.189792791999935, 26.639849541999865, 31.022083374999966]",0.010868208333704388,31.032882958333175,['A1'],['B1'],['C3'],['yellow'],['salmon'],['blue'],1200.2031183749996,None,7.0,6.013874125000257,1200.2031183749996,None,1224.8203099579996,None,5.0,8.987850416000583,1206.7869771249998,None,5.0,13.740025125000102,1220.5214320409996,None,5.0,4.812966208000034,<function functionImportanceC at 0x7fca7eaa5510>,<function functionImportanceB at 0x7fca7e88b488>,<function functionImportanceA at 0x7fca7e88b510>,,,2.0,3.9957661669996014,2.0,4.547069707999981,2.0,8.987850416000583,<function functiondiffC at 0x7fca6b18a8c8>,<function functiondiffB at 0x7fca6b18a950>,<function functiondiffA at 0x7fca6b18a9d8>,,,,,1168.697408166,1248.5063329579998,None,1234.3357031249998,None,1244.4359690000001,None,patient1,001,2024_Jan_30_1359,2leo,2021.2.3,None,
3,27,Planifica qué festival visitar con tus amigas,Stimuli/27A1.jpg,Stimuli/27A2.jpg,Stimuli/27A3.jpg,Stimuli/27B1.jpg,Stimuli/27B2.jpg,Stimuli/27B3.jpg,Stimuli/27C1.jpg,Stimuli/27C2.jpg,Stimuli/27C3.jpg,,,,,0,8,8,27,,,,,,,,1252.0393153750001,None,1253.03529075,None,1259.0280006659996,None,"[-0.203, -0.347]","[0.399, -0.003]","[-0.2, 0.346]","[0.304, -0.26]","[0.07, 0.393]","[-0.378, -0.136]","[0.066, -0.395]","[0.306, 0.255]","[-0.377, 0.138]",,15.818388833333302,43.8017053333333,34.894205208333005,"[-0.2, -0.3435185185185185, 0.34629629629629627]","[0.3055555555555556, 0.11666666666666667, -0.28888888888888886]","[1, 1, 1]","[0, 0, 0]","[0, 0, 0]","[15.806403749999845, 34.889791832999435, 43.78954083299959]",0.011209041333131609,43.800668333333306,['A3'],['B1'],['C3'],['salmon'],['blue'],['yellow'],1304.419052958,None,6.0,5.802990584000327,1304.419052958,None,1325.3892970409997,None,5.0,10.596353458000522,1310.275839041,None,6.0,7.978615916999843,1318.2719097909994,None,5.0,7.140084167000168,<function functionImportanceC at 0x7fca78a261e0>,<function functionImportanceB at 0x7fc9c9335488>,<function functionImportanceA at 0x7fc9c9335158>,,,3.0,3.972816375000548,3.0,7.0468586249999134,3.0,10.596353458000522,<function functiondiffB at 0x7fca6a5f3488>,<function functiondiffA at 0x7fca7eac9378>,<function functiondiffC at 0x7fca6a5f3048>,,,,,1260.1433081249997,1343.0699852079997,None,1347.0377472499995,None,1335.9865719999998,None,patient1,001,2024_Jan_30_1359,2leo,2021.2.3,None,
3,31,Planifica tu pedido en un restaurante,Stimuli/31A1.jpg,Stimuli/31A2.jpg,Stimuli/31A3.jpg,Stimuli/31B1.jpg,Stimuli/31B2.jpg,Stimuli/31B3.jpg,Stimuli/31C1.jpg,Stimuli/31C2.jpg,Stimuli/31C3.jpg,,,,,0,9,9,31,,,,,,,,1352.4659354159994,None,1353.4682855829997,None,1359.4614790409996,None,"[-0.378, -0.136]","[0.304, -0.26]","[0.07, 0.393]","[-0.377, 0.138]","[0.066, -0.395]","[0.306, 0.255]","[-0.2, 0.346]","[-0.203, -0.347]","[0.399, -0.003]",,52.9589738746663,37.343304791666924,47.16817449966675,"[0.2537037037037037, -0.17037037037037037, 0.29074074074074074]","[0.2212962962962963, 0.2935185185185185, -0.275]","[1, 1, 1]","[0, 0, 0]","[0, 0, 0]","[37.34189870799946, 47.16661933299929, 52.95806779199938]",0.00031412466705660336,52.95828216666632,['A2'],['B3'],['C1'],['blue'],['salmon'],['yellow'],1414.3358443749994,None,5.0,12.505301582999891,1414.3358443749994,None,1440.5531902080002,None,5.0,3.379809500000192,1434.8093884999998,None,5.0,5.413344790999872,1426.8760952080002,None,5.0,7.930035207999936,<function functionImportanceB at 0x7fca6b583620>,<function functionImportanceC at 0x7fca6b5838c8>,<function functionImportanceA at 0x7fca6b583950>,,,2.0,3.196877499999573,2.0,3.7730759159994705,2.0,3.379809500000192,<function functiondiffC at 0x7fca42434b70>,<function functiondiffA at 0x7fca42434e18>,<function functiondiffB at 0x7fca424341e0>,,,,,1360.8826274579997,1451.1034025,None,1443.6188378329998,None,1454.0023058749994,None,patient1,001,2024_Jan_30_1359,2leo,2021.2.3,None,
3,2,Planifica qué ingredientes quieres usar para cocinar la cena de hoy,Stimuli/2A1.jpg,Stimuli/2A2.jpg,Stimuli/2A3.jpg,Stimuli/2B1.jpg,Stimuli/2B2.jpg,Stimuli/2B3.jpg,Stimuli/2C1.jpg,Stimuli/2C2.jpg,Stimuli/2C3.jpg,,,,,0,10,10,2,,,,,,,,1457.2915507079997,None,1458.2882974579998,None,1464.2774542910001,None,"[-0.203, -0.347]","[-0.2, 0.346]","[0.399, -0.003]","[0.066, -0.395]","[-0.377, 0.138]","[0.306, 0.255]","[0.304, -0.26]","[-0.378, -0.136]","[0.07, 0.393]",,22.101166666333484,25.93148287533313,14.151829541333427,"[-0.3277777777777778, 0.37407407407407406, 0.05277777777777778]","[-0.13333333333333333, -0.024074074074074074, -0.38796296296296295]","[1, 1, 1]","[0, 0, 0]","[0, 0, 0]","[14.143148540999391, 22.093113957999776, 25.923268249999637]",0.007321041333852918,25.930484250333393,['A3'],['B1'],['C2'],['salmon'],['blue'],['yellow'],1493.0689524159998,None,5.0,5.6189741250000225,1493.0689524159998,None,1499.053083416,None,5.0,6.80371387500054,1505.7054918329995,None,5.0,4.0373332919998575,1510.371260291,None,4.0,18.4364692500003,<function functionImportanceA at 0x7fca68dcc9d8>,<function functionImportanceC at 0x7fca68dcc950>,<function functionImportanceB at 0x7fca68dcc2f0>,,,3.0,3.4129039580002427,3.0,5.029672124999706,3.0,6.80371387500054,<function functiondiffC at 0x7fca78d9d268>,<function functiondiffB at 0x7fca7ea09a60>,<function functiondiffA at 0x7fca7ea09c80>,,,,,1466.6603944580002,1542.617635875,None,1528.1856482499998,None,1538.0717867499998,None,patient1,001,2024_Jan_30_1359,2leo,2021.2.3,None,
3,12,Planifica los ingredientes para prepararte un cóctel,Stimuli/12A1.jpg,Stimuli/12A2.jpg,Stimuli/12A3.jpg,Stimuli/12B1.jpg,Stimuli/12B2.jpg,Stimuli/12B3.jpg,Stimuli/12C1.jpg,Stimuli/12C2.jpg,Stimuli/12C3.jpg,,,,,0,11,11,12,,,,,,,,1545.24861625,None,1546.2494578750002,None,1552.2443067499999,None,"[-0.203, -0.347]","[-0.2, 0.346]","[0.399, -0.003]","[0.304, -0.26]","[-0.378, -0.136]","[0.07, 0.393]","[0.066, -0.395]","[-0.377, 0.138]","[0.306, 0.255]",,48.813914749000105,21.706383874000494,36.206891040999835,"[0.25462962962962965, 0.075, 0.3194444444444444, -0.1925925925925926]","[-0.24444444444444444, 0.4203703703703704, 0.23425925925925925, -0.34444444444444444]","[1, 1, 1, 1]","[0, 0, 0, 0]","[0, 0, 0, 0]","[21.702448500000173, 25.377681875000235, 36.2023073750006, 48.81039933400007]",0.0030834990002404083,48.81336466599987,['A1'],['B1'],['C3'],['salmon'],['yellow'],['blue'],1602.7021593749996,None,4.0,4.105726417000369,1602.7021593749996,None,1611.9213787079998,None,4.0,2.804448582999612,1606.8549859999994,None,4.0,3.0219409579995045,1609.9027523329996,None,4.0,2.030960916999902,<function functionImportanceC at 0x7fca6a5f2510>,<function functionImportanceB at 0x7fca6a5f2400>,<function functionImportanceA at 0x7fca6a5f2a60>,,,3.0,2.7125413339999795,3.0,4.462408374999541,3.0,2.804448582999612,<function functiondiffB at 0x7fc9cb1570d0>,<function functiondiffC at 0x7fc9cb157158>,<function functiondiffA at 0x7fc9cb157048>,,,,,1553.39508175,1625.8365462499996,None,1619.1836847079994,None,1614.7002294579997,None,patient1,001,2024_Jan_30_1359,2leo,2021.2.3,None,
3,6,Planifica tu boda,Stimuli/6A1.jpg,Stimuli/6A2.jpg,Stimuli/6A3.jpg,Stimuli/6B1.jpg,Stimuli/6B2.jpg,Stimuli/6B3.jpg,Stimuli/6C1.jpg,Stimuli/6C2.jpg,Stimuli/6C3.jpg,,,,,0,12,12,6,,,,,,,,1628.0660007079996,None,1629.0652688330001,None,1635.0599714999998,None,"[0.07, 0.393]","[0.304, -0.26]","[-0.378, -0.136]","[0.399, -0.003]","[-0.203, -0.347]","[-0.2, 0.346]","[0.306, 0.255]","[0.066, -0.395]","[-0.377, 0.138]",,26.68272570866702,16.826566958667172,35.324205374667144,"[0.4222222222222222, 0.07592592592592592, 0.06759259259259259]","[-0.010185185185185186, 0.362962962962963, -0.3537037037037037]","[1, 1, 1]","[0, 0, 0]","[0, 0, 0]","[16.822524000000158, 26.67908845800048, 35.31947483300064]",0.0031910836669339915,35.32208387466744,['A1'],['B1'],['C2'],['salmon'],['blue'],['yellow'],1672.9861647500002,None,6.0,6.83040233400061,1672.9861647500002,None,1692.685890916,None,6.0,6.904938583999865,1687.8853686659995,None,7.0,4.830940957999701,1680.253160958,None,7.0,7.663069833000009,<function functionImportanceB at 0x7fca78daf0d0>,<function functionImportanceC at 0x7fca78daf1e0>,<function functionImportanceA at 0x7fca78daf2f0>,,,3.0,4.463503667000623,2.0,5.630214167000304,3.0,6.904938583999865,<function functiondiffC at 0x7fca7ee26ae8>,<function functiondiffA at 0x7fca7ee26f28>,<function functiondiffB at 0x7fca7ee26e18>,,,,,1637.1784781249999,1715.418893125,None,1699.6346996659995,None,1719.9687335829994,None,patient1,001,2024_Jan_30_1359,2leo,2021.2.3,None,
3,18,Planifica tu noche de sábado,Stimuli/18A1.jpg,Stimuli/18A2.jpg,Stimuli/18A3.jpg,Stimuli/18B1.jpg,Stimuli/18B2.jpg,Stimuli/18B3.jpg,Stimuli/18C1.jpg,Stimuli/18C2.jpg,Stimuli/18C3.jpg,,,,,0,13,13,18,,,,,,,,1724.74005675,None,1725.7371992909993,None,1731.726097875,None,"[-0.378, -0.136]","[0.304, -0.26]","[0.07, 0.393]","[-0.2, 0.346]","[-0.203, -0.347]","[0.399, -0.003]","[-0.377, 0.138]","[0.066, -0.395]","[0.306, 0.255]",,21.705044917333908,17.16452504233439,15.181481000334315,"[0.32592592592592595, 0.425, -0.362962962962963]","[0.2462962962962963, 0.007407407407407408, -0.1259259259259259]","[1, 1, 1]","[0, 0, 0]","[0, 0, 0]","[15.177322499999718, 17.160688875000233, 21.70185550000042]",0.0026656673344405135,21.70444883433447,['A1'],['B3'],['C3'],['blue'],['salmon'],['yellow'],1755.0498899579998,None,7.0,3.497534000000087,1755.0498899579998,None,1763.270950833,None,7.0,7.31389558400042,1758.6020228329999,None,7.0,4.655753834000279,1770.5744360829995,None,7.0,7.2208535419995314,<function functionImportanceC at 0x7fca6a5e5268>,<function functionImportanceA at 0x7fca6a5e5510>,<function functionImportanceB at 0x7fca6a5e5e18>,,,2.0,5.519389541999772,2.0,5.840241500000047,2.0,7.31389558400042,<function functiondiffA at 0x7fca7e37a2f0>,<function functiondiffC at 0x7fca42434d08>,<function functiondiffB at 0x7fca424348c8>,,,,,1732.861424791,1777.8010762079994,None,1783.3355002909993,None,1787.3840053329995,None,patient1,001,2024_Jan_30_1359,2leo,2021.2.3,None,
3,39,Planifica qué tipo de reloj quieres comprar,Stimuli/39A1.jpg,Stimuli/39A2.jpg,Stimuli/39A3.jpg,Stimuli/39B1.jpg,Stimuli/39B2.jpg,Stimuli/39B3.jpg,Stimuli/39C1.jpg,Stimuli/39C2.jpg,Stimuli/39C3.jpg,,,,,0,14,14,39,,,,,,,,1792.7397124159997,None,1793.7366278749996,None,1799.7260660000002,None,"[0.306, 0.255]","[-0.377, 0.138]","[0.066, -0.395]","[0.399, -0.003]","[-0.2, 0.346]","[-0.203, -0.347]","[0.07, 0.393]","[-0.378, -0.136]","[0.304, -0.26]",,44.190997417333165,13.42512591733248,57.508161750332874,"[0.39537037037037037, 0.2824074074074074, -0.3435185185185185]","[-0.025925925925925925, 0.21296296296296297, -0.16296296296296298]","[1, 1, 1]","[0, 0, 0]","[0, 0, 0]","[13.415926249999757, 44.1822083750003, 57.498386250000294]",0.008160333332853043,57.50663041733333,['A1'],['B1'],['C2'],['salmon'],['yellow'],['blue'],1858.799198666,None,6.0,3.5886958749997575,1858.799198666,None,1871.4199894160001,None,6.0,7.104118500000368,1862.4178357499995,None,6.0,3.2470411660005993,1865.6571963749993,None,6.0,5.73747212499984,<function functionImportanceC at 0x7fca424342f0>,<function functionImportanceB at 0x7fca42434ea0>,<function functionImportanceA at 0x7fca42434268>,,,2.0,5.330164457999672,2.0,2.756359916999827,6.0,7.104118500000368,<function functiondiffC at 0x7fc9c9335950>,<function functiondiffA at 0x7fc9c8adb7b8>,<function functiondiffB at 0x7fc9c9335f28>,,,,,1800.8075885409999,1881.884255416,None,1878.5335630829995,None,1887.223871833,None,patient1,001,2024_Jan_30_1359,2leo,2021.2.3,None,
3,3,Planificar una noche de cine con una amiga,Stimuli/3A1.jpg,Stimuli/3A2.jpg,Stimuli/3A3.jpg,Stimuli/3B1.jpg,Stimuli/3B2.jpg,Stimuli/3B3.jpg,Stimuli/3C1.jpg,Stimuli/3C2.jpg,Stimuli/3C3.jpg,,,,,0,15,15,3,,,,,,,,1901.152702458,None,1902.1484951249995,None,1908.1422277499996,None,"[-0.377, 0.138]","[0.066, -0.395]","[0.306, 0.255]","[-0.378, -0.136]","[0.304, -0.26]","[0.07, 0.393]","[-0.2, 0.346]","[-0.203, -0.347]","[0.399, -0.003]",,43.74560558400026,29.27181125000061,16.306431167000483,"[-0.1574074074074074, 0.3351851851851852, 0.4185185185185185, 0.11388888888888889]","[-0.3907407407407407, -0.25, -0.013888888888888888, -0.43333333333333335]","[1, 1, 1, 1]","[0, 0, 0, 0]","[0, 0, 0, 0]","[16.302909042000465, 29.268784167000376, 32.03442258399991, 43.742962750000515]",0.0020537090003927005,43.74441591699997,['A2'],['B2'],['C2'],['salmon'],['blue'],['yellow'],1954.1823934579998,None,5.0,3.205246999999872,1954.1823934579998,None,1964.5848487499998,None,6.0,3.1468765420004274,1957.785187083,None,6.0,7.1733157080007,1968.1338474159993,None,4.0,7.962618707999354,<function functionImportanceC at 0x7fca7ea097b8>,<function functionImportanceA at 0x7fca7e88f2f0>,<function functionImportanceB at 0x7fca42434a60>,,,3.0,4.506272041000557,3.0,4.1297309170004155,3.0,3.1468765420004274,<function functiondiffC at 0x7fca89665950>,<function functiondiffB at 0x7fca896658c8>,<function functiondiffA at 0x7fca89665620>,,,,,1909.944685333,1985.2899113329995,None,1976.0672607079996,None,1981.4992222909996,None,patient1,001,2024_Jan_30_1359,2leo,2021.2.3,None,
3,25,Planifica cómo quieres leer un libro en tu tiempo libre,Stimuli/25A1.jpg,Stimuli/25A2.jpg,Stimuli/25A3.jpg,Stimuli/25B1.jpg,Stimuli/25B2.jpg,Stimuli/25B3.jpg,Stimuli/25C1.jpg,Stimuli/25C2.jpg,Stimuli/25C3.jpg,,,,,0,16,16,25,,,,,,,,1989.3047677499999,None,1990.3021146249994,None,1996.2913452909997,None,"[0.399, -0.003]","[-0.203, -0.347]","[-0.2, 0.346]","[0.07, 0.393]","[0.304, -0.26]","[-0.378, -0.136]","[0.306, 0.255]","[0.066, -0.395]","[-0.377, 0.138]",,17.293938250000792,20.126823250000598,27.918707417000405,"[-0.2212962962962963, 0.05462962962962963, -0.31296296296296294]","[0.3611111111111111, 0.3333333333333333, 0.11018518518518519]","[1, 1, 1]","[0, 0, 0]","[0, 0, 0]","[17.28843116600001, 20.12122779100082, 27.91240954100067]",0.004715042000498215,27.91704395800025,['A3'],['B1'],['C3'],['blue'],['salmon'],['yellow'],2025.948379208,None,6.0,3.7946346250000715,2025.948379208,None,2040.5498278329997,None,7.0,10.92059425000025,2037.6507861659993,None,5.0,3.003680541999529,2029.8019117909998,None,5.0,7.752985542000715,<function functionImportanceB at 0x7fca7ea0e1e0>,<function functionImportanceC at 0x7fca7ea0e488>,<function functionImportanceA at 0x7fca7ea0e0d0>,,,2.0,6.196817041000031,2.0,6.929629999999634,2.0,10.92059425000025,<function functiondiffB at 0x7fc9cb09a268>,<function functiondiffC at 0x7fc9cb09a950>,<function functiondiffA at 0x7fc9cb09aa60>,,,,,1997.5415420829995,2063.7693642079994,None,2058.5013349579995,None,2051.500048875,None,patient1,001,2024_Jan_30_1359,2leo,2021.2.3,None,
3,33,Planifica los elementos para decorar tu árbol de Navidad,Stimuli/33A1.jpg,Stimuli/33A2.jpg,Stimuli/33A3.jpg,Stimuli/33B1.jpg,Stimuli/33B2.jpg,Stimuli/33B3.jpg,Stimuli/33C1.jpg,Stimuli/33C2.jpg,Stimuli/33C3.jpg,,,,,0,17,17,33,,,,,,,,2069.488409083,None,2070.5023334159996,None,2076.490508416,None,"[0.399, -0.003]","[-0.203, -0.347]","[-0.2, 0.346]","[0.07, 0.393]","[0.304, -0.26]","[-0.378, -0.136]","[0.306, 0.255]","[0.066, -0.395]","[-0.377, 0.138]",,31.620043625666767,44.72844958366659,18.220431000666395,"[0.1, 0.4212962962962963, -0.3148148148148148]","[-0.40185185185185185, -0.009259259259259259, -0.13796296296296295]","[1, 1, 1]","[0, 0, 0]","[0, 0, 0]","[18.214956249999886, 31.61551999999938, 44.72322037499998]",0.004059750666783657,44.72719312566642,['A1'],['B3'],['C2'],['blue'],['yellow'],['salmon'],2122.9158606659994,None,6.0,3.812089166000078,2122.9158606659994,None,2134.2643802909997,None,6.0,5.3536187919999065,2139.5158808749993,None,5.0,7.387353291999716,2126.7498396249994,None,6.0,7.370149124999443,<function functionImportanceB at 0x7fc9cae122f0>,<function functionImportanceA at 0x7fc9cae12d08>,<function functionImportanceC at 0x7fc9cae12268>,,,3.0,2.8796575409996876,2.0,7.946124125000097,3.0,5.3536187919999065,<function functiondiffC at 0x7fca78daf048>,<function functiondiffA at 0x7fca78daf488>,<function functiondiffB at 0x7fca78daf7b8>,,,,,2077.6963581659993,2151.5512763749994,None,2146.884590916,None,2154.3181868329993,None,patient1,001,2024_Jan_30_1359,2leo,2021.2.3,None,
3,26,Planifica cómo lavar una ronda de tu ropa,Stimuli/26A1.jpg,Stimuli/26A2.jpg,Stimuli/26A3.jpg,Stimuli/26B1.jpg,Stimuli/26B2.jpg,Stimuli/26B3.jpg,Stimuli/26C1.jpg,Stimuli/26C2.jpg,Stimuli/26C3.jpg,,,,,0,18,18,26,,,,,,,,2161.7879133749993,None,2162.7844957079997,None,2168.77343975,None,"[-0.203, -0.347]","[-0.2, 0.346]","[0.399, -0.003]","[0.066, -0.395]","[-0.377, 0.138]","[0.306, 0.255]","[0.304, -0.26]","[-0.378, -0.136]","[0.07, 0.393]",,38.568373999333744,16.90241949933352,23.386221957333873,"[0.08888888888888889, -0.34629629629629627, -0.19074074074074074]","[-0.3972222222222222, -0.13148148148148148, -0.35833333333333334]","[1, 1, 1]","[0, 0, 0]","[0, 0, 0]","[16.894190750000234, 23.37744287500027, 38.56054645800032]",0.007360416333540343,38.567812957333445,['A1'],['B1'],['C2'],['yellow'],['salmon'],['blue'],2208.898416041,None,5.0,4.121986417000699,2208.898416041,None,2221.63233125,None,4.0,3.287487415999749,2213.0335015,None,4.0,5.546272042000055,2218.600817666,None,4.0,3.004813290999664,<function functionImportanceC at 0x7fc9cae09048>,<function functionImportanceB at 0x7fc9cae09510>,<function functionImportanceA at 0x7fc9cae097b8>,,,2.0,3.8228516670005774,2.0,5.046717582999918,2.0,3.287487415999749,<function functiondiffB at 0x7fca6ba3d048>,<function functiondiffA at 0x7fca6ba3dae8>,<function functiondiffC at 0x7fca6ba3dea0>,,,,,2169.8427027079997,2229.96829625,None,2233.8161180409998,None,2224.9051771659997,None,patient1,001,2024_Jan_30_1359,2leo,2021.2.3,None,
3,41,Planifica cómo quieres cenar esta noche,Stimuli/41A1.jpg,Stimuli/41A2.jpg,Stimuli/41A3.jpg,Stimuli/41B1.jpg,Stimuli/41B2.jpg,Stimuli/41B3.jpg,Stimuli/41C1.jpg,Stimuli/41C2.jpg,Stimuli/41C3.jpg,,,,,0,19,19,41,,,,,,,,2236.8633206249997,None,2237.862013416,None,2243.856587958,None,"[-0.2, 0.346]","[0.399, -0.003]","[-0.203, -0.347]","[-0.378, -0.136]","[0.07, 0.393]","[0.304, -0.26]","[-0.377, 0.138]","[0.306, 0.255]","[0.066, -0.395]",,18.930367375332935,35.84721316733339,26.581069208333247,"[0.42962962962962964, -0.37592592592592594, 0.2675925925925926]","[-0.037037037037037035, 0.09166666666666666, -0.2611111111111111]","[1, 1, 1]","[0, 0, 0]","[0, 0, 0]","[18.922918874999596, 26.57289949999995, 35.83922729200003]",0.006752458332812239,35.84592595833328,['A2'],['B3'],['C1'],['salmon'],['yellow'],['blue'],2281.3146102909996,None,6.0,3.81392358300036,2281.3146102909996,None,2289.32126025,None,6.0,5.7873111250000875,2295.1484252499995,None,5.0,7.354626958999688,2285.1493230409997,None,7.0,4.146424958999887,<function functionImportanceB at 0x7fc9c8adb6a8>,<function functionImportanceA at 0x7fc9c8adb2f0>,<function functionImportanceC at 0x7fc9c8adb730>,,,1.0,7.8466019589995994,3.0,7.112682999999379,2.0,5.7873111250000875,<function functiondiffA at 0x7fc9cba58bf8>,<function functiondiffB at 0x7fc9cba58598>,<function functiondiffC at 0x7fc9cba58158>,,,,,2244.9890192909997,2302.481967666,None,2317.513387833,None,2310.348259583,None,patient1,001,2024_Jan_30_1359,2leo,2021.2.3,None,
3,15,Planifica tu propia Pasta para el almuerzo,Stimuli/15A1.jpg,Stimuli/15A2.jpg,Stimuli/15A3.jpg,Stimuli/15B1.jpg,Stimuli/15B2.jpg,Stimuli/15B3.jpg,Stimuli/15C1.jpg,Stimuli/15C2.jpg,Stimuli/15C3.jpg,,,,,0,20,20,15,,,,,,,,2322.4201941249994,None,2323.4169933329995,None,2329.4060924159994,None,"[0.304, -0.26]","[-0.378, -0.136]","[0.07, 0.393]","[-0.203, -0.347]","[-0.2, 0.346]","[0.399, -0.003]","[0.066, -0.395]","[-0.377, 0.138]","[0.306, 0.255]",,5.120580291333681,20.901164124333263,30.051976333333187,"[0.1287037037037037, 0.3851851851851852, 0.075]","[0.3351851851851852, -0.03611111111111111, -0.42592592592592593]","[1, 1, 1]","[0, 0, 0]","[0, 0, 0]","[5.117272292000052, 20.897468041999673, 30.048108042000422]",0.002543374333981774,30.049838666333926,['A3'],['B3'],['C1'],['blue'],['yellow'],['salmon'],2361.165362791,None,5.0,3.0359785000000556,2361.165362791,None,2369.7308072079995,None,4.0,3.1376007500002743,2364.400727458,None,5.0,2.986337542000001,2367.2309827909994,None,4.0,2.487497000000076,<function functionImportanceC at 0x7fca7f807598>,<function functionImportanceB at 0x7fca7f807378>,<function functionImportanceA at 0x7fca7f807a60>,,,5.0,2.7962000409997927,5.0,3.4295771249999234,5.0,3.1376007500002743,<function functiondiffA at 0x7fca6a5f3c80>,<function functiondiffB at 0x7fca6a5f38c8>,<function functiondiffC at 0x7fca6a5f3840>,,,,,2330.629336166,2372.863109541,None,2379.266502458,None,2375.7007578329994,None,patient1,001,2024_Jan_30_1359,2leo,2021.2.3,None,
3,11,Planifica una caminata en la naturaleza en un día libre,Stimuli/11A1.jpg,Stimuli/11A2.jpg,Stimuli/11A3.jpg,Stimuli/11B1.jpg,Stimuli/11B2.jpg,Stimuli/11B3.jpg,Stimuli/11C1.jpg,Stimuli/11C2.jpg,Stimuli/11C3.jpg,,,,,0,21,21,11,,,,,,,,2381.512855125,None,2382.511976166,None,2388.505747958,None,"[0.399, -0.003]","[-0.2, 0.346]","[-0.203, -0.347]","[0.07, 0.393]","[-0.378, -0.136]","[0.304, -0.26]","[0.306, 0.255]","[-0.377, 0.138]","[0.066, -0.395]",,18.22730804100047,11.199145416000647,33.46188550000079,"[0.08425925925925926, 0.36944444444444446, -0.35462962962962963]","[0.3425925925925926, -0.004629629629629629, 0.09814814814814815]","[1, 1, 1]","[0, 0, 0]","[0, 0, 0]","[11.19287154199992, 18.22152916699997, 33.455095000000256]",0.00536116600051173,33.4596476250008,['A1'],['B1'],['C2'],['yellow'],['salmon'],['blue'],2423.547193083,None,6.0,6.035998709000523,2423.547193083,None,2432.715766083,None,6.0,3.203082750000249,2429.620157958,None,7.0,3.086690500000259,2435.9374374999998,None,7.0,3.0303805840003406,<function functionImportanceC at 0x7fc9cc65abf8>,<function functionImportanceA at 0x7fc9cc65ad90>,<function functionImportanceB at 0x7fc9cc65aae8>,,,3.0,4.123335000000225,3.0,5.956572250000136,7.0,3.203082750000249,<function functiondiffC at 0x7fc9cae12bf8>,<function functiondiffB at 0x7fc9cb09a730>,<function functiondiffA at 0x7fc9cb09a158>,,,,,2389.606370583,2449.114023041,None,2438.9632707499995,None,2443.1487795409994,None,patient1,001,2024_Jan_30_1359,2leo,2021.2.3,None,
3,22,Planifica un día de playa con tus amigas,Stimuli/22A1.jpg,Stimuli/22A2.jpg,Stimuli/22A3.jpg,Stimuli/22B1.jpg,Stimuli/22B2.jpg,Stimuli/22B3.jpg,Stimuli/22C1.jpg,Stimuli/22C2.jpg,Stimuli/22C3.jpg,,,,,0,22,22,22,,,,,,,,2452.7531396249997,None,2453.74945675,None,2459.7385084159996,None,"[0.306, 0.255]","[-0.377, 0.138]","[0.066, -0.395]","[0.07, 0.393]","[-0.378, -0.136]","[0.304, -0.26]","[0.399, -0.003]","[-0.2, 0.346]","[-0.203, -0.347]",,7.99726100033331,26.26456783433332,15.464942917333246,"[0.2916666666666667, -0.19166666666666668, -0.362962962962963]","[0.22685185185185186, -0.3675925925925926, -0.13333333333333333]","[1, 1, 1]","[0, 0, 0]","[0, 0, 0]","[7.987917707999259, 15.454547957999239, 26.254600416999892]",0.008893334334061365,26.262621542333363,['A1'],['B2'],['C3'],['blue'],['salmon'],['yellow'],2487.5463501249997,None,6.0,2.9520996669998567,2487.5463501249997,None,2490.5302982079993,None,7.0,5.4953094579996105,2496.049335666,None,7.0,2.805326167000203,2498.846617125,None,7.0,3.7068827499997496,<function functionImportanceA at 0x7fc9c97e9048>,<function functionImportanceC at 0x7fc9cba60d08>,<function functionImportanceB at 0x7fc9cba609d8>,,,1.0,6.6950979160001225,1.0,5.769595292000304,1.0,5.4953094579996105,<function functiondiffA at 0x7fca89665488>,<function functiondiffB at 0x7fca89665048>,<function functiondiffC at 0x7fca78a297b8>,,,,,2460.806480958,2502.5795742909995,None,2515.0631116659997,None,2509.265744083,None,patient1,001,2024_Jan_30_1359,2leo,2021.2.3,None,
3,21,Planifica tu bocadillo para el almuerzo,Stimuli/21A1.jpg,Stimuli/21A2.jpg,Stimuli/21A3.jpg,Stimuli/21B1.jpg,Stimuli/21B2.jpg,Stimuli/21B3.jpg,Stimuli/21C1.jpg,Stimuli/21C2.jpg,Stimuli/21C3.jpg,,,,,0,23,23,21,,,,,,,,2518.253156125,None,2519.249096333,None,2525.238609125,None,"[0.066, -0.395]","[0.306, 0.255]","[-0.377, 0.138]","[0.304, -0.26]","[0.07, 0.393]","[-0.378, -0.136]","[-0.203, -0.347]","[0.399, -0.003]","[-0.2, 0.346]",,15.89727058333392,29.622238458333413,20.622910625334043,"[0.2972222222222222, 0.3648148148148148, -0.31296296296296294]","[0.2064814814814815, -0.03981481481481482, -0.1259259259259259]","[1, 1, 1]","[0, 0, 0]","[0, 0, 0]","[15.889688792000015, 20.614535624999917, 29.61414162500023]",0.006906041333422763,29.620942000334253,['A2'],['B3'],['C2'],['salmon'],['yellow'],['blue'],2556.4291023329997,None,6.0,3.105306166000446,2556.4291023329997,None,2567.4318912499994,None,3.0,4.163931707999836,2559.5489015409994,None,2.0,7.863887083000009,2571.5979980829998,None,4.0,5.055375333000484,<function functionImportanceC at 0x7fc9cbbd8158>,<function functionImportanceA at 0x7fc9cbbd8950>,<function functionImportanceB at 0x7fc9cbbd8620>,,,2.0,4.129842291999921,3.0,7.129932917000588,4.0,4.163931707999836,<function functiondiffC at 0x7fc9cc65a598>,<function functiondiffB at 0x7fc9cc65aa60>,<function functiondiffA at 0x7fc9cc65a2f0>,,,,,2526.320055958,2586.4139870829995,None,2576.6792935409994,None,2579.2653494999995,None,patient1,001,2024_Jan_30_1359,2leo,2021.2.3,None,
3,1,Planifica cómo estudiar para un examen,Stimuli/1A1.jpg,Stimuli/1A2.jpg,Stimuli/1A3.jpg,Stimuli/1B1.jpg,Stimuli/1B2.jpg,Stimuli/1B3.jpg,Stimuli/1C1.jpg,Stimuli/1C2.jpg,Stimuli/1C3.jpg,,,,,0,24,24,1,,,,,,,,2590.0623297499997,None,2591.060060916,None,2597.0545039159997,None,"[0.304, -0.26]","[0.07, 0.393]","[-0.378, -0.136]","[-0.203, -0.347]","[0.399, -0.003]","[-0.2, 0.346]","[0.066, -0.395]","[0.306, 0.255]","[-0.377, 0.138]",,25.28805220866616,21.930094375666158,11.397273625666458,"[0.05648148148148148, 0.3425925925925926, 0.07592592592592592]","[-0.3888888888888889, -0.044444444444444446, 0.3537037037037037]","[1, 1, 1]","[0, 0, 0]","[0, 0, 0]","[11.393457375000253, 21.926520333000553, 25.284875000000284]",0.0025400836666449322,25.287389833666566,['A2'],['B2'],['C1'],['blue'],['yellow'],['salmon'],2623.8943956249996,None,6.0,14.73627391700029,2623.8943956249996,None,2652.530993708,None,6.0,4.289387541999531,2644.2360978749994,None,5.0,8.29765504199986,2638.6635925,None,5.0,5.553757624999889,<function functionImportanceB at 0x7fc9cb09ac80>,<function functionImportanceC at 0x7fc9cb09a7b8>,<function functionImportanceA at 0x7fc9cb09ab70>,,,2.0,4.279708082998695,3.0,4.396721666001213,0.0,4.289387541999531,<function functiondiffC at 0x7fca42420730>,<function functiondiffB at 0x7fca424201e0>,<function functiondiffA at 0x7fca42420950>,,,,,2598.1258153749995,2672.1987784579997,None,2656.829570375,None,2667.7965225,None,patient1,001,2024_Jan_30_1359,2leo,2021.2.3,None,
3,42,Planifica cómo dibujar un cuadro,Stimuli/42A1.jpg,Stimuli/42A2.jpg,Stimuli/42A3.jpg,Stimuli/42B1.jpg,Stimuli/42B2.jpg,Stimuli/42B3.jpg,Stimuli/42C1.jpg,Stimuli/42C2.jpg,Stimuli/42C3.jpg,,,,,0,25,25,42,,,,,,,,2675.9953169580003,None,2676.9916456659994,None,2682.9875626249996,None,"[-0.2, 0.346]","[-0.203, -0.347]","[0.399, -0.003]","[-0.378, -0.136]","[0.304, -0.26]","[0.07, 0.393]","[-0.377, 0.138]","[0.066, -0.395]","[0.306, 0.255]",,12.032370708666349,32.073597083666755,36.940678916666,"[-0.16018518518518518, -0.36203703703703705]","[0.3277777777777778, -0.13425925925925927]","[1, 1]","[0, 0]","[0, 0]","[12.024325291999048, 32.06511629199849]",0.007605208666063845,36.93849916666659,['A1'],['B1'],['C3'],['blue'],['salmon'],['yellow'],2721.529098249999,None,6.0,3.4890464579984837,2721.529098249999,None,2728.5282272080003,None,6.0,4.164046833999237,2732.6630111249997,None,5.0,4.963234041999385,2725.0306283749997,None,6.0,3.4388119999985065,<function functionImportanceB at 0x7fc9cbbdb0d0>,<function functionImportanceA at 0x7fc9cbbdb840>,<function functionImportanceC at 0x7fc9c8adbbf8>,,,1.0,3.0463175830009277,1.0,5.406556082998577,1.0,4.164046833999237,<function functiondiffB at 0x7fc9c97e9e18>,<function functiondiffA at 0x7fc9c97e90d0>,<function functiondiffC at 0x7fc9c97e9488>,,,,,2684.102309415999,2743.079831290999,None,2746.111260665999,None,2737.6286869159994,None,patient1,001,2024_Jan_30_1359,2leo,2021.2.3,None,
3,4,Planifica una noche de juegos en tu casa,Stimuli/4A1.jpg,Stimuli/4A2.jpg,Stimuli/4A3.jpg,Stimuli/4B1.jpg,Stimuli/4B2.jpg,Stimuli/4B3.jpg,Stimuli/4C1.jpg,Stimuli/4C2.jpg,Stimuli/4C3.jpg,,,,,0,26,26,4,,,,,,,,2748.5852456249995,None,2749.580998915999,None,2755.5706418749996,None,"[0.07, 0.393]","[-0.378, -0.136]","[0.304, -0.26]","[0.306, 0.255]","[-0.377, 0.138]","[0.066, -0.395]","[0.399, -0.003]","[-0.2, 0.346]","[-0.203, -0.347]",,38.16520450033386,15.316195917332152,28.37460550033211,"[0.26481481481481484, -0.1935185185185185, 0.05925925925925926]","[0.2101851851851852, -0.3574074074074074, 0.37222222222222223]","[1, 1, 1]","[0, 0, 0]","[0, 0, 0]","[15.299317584000164, 28.357256916999177, 38.14889249999942]",0.01587587533322221,38.163919167333006,['A1'],['B1'],['C3'],['salmon'],['blue'],['yellow'],2795.9276465410003,None,6.0,2.613343500001065,2795.9276465410003,None,2805.6020789159993,None,3.0,10.306973958999151,2801.129915583,None,6.0,4.512949167001352,2798.5640624999996,None,6.0,2.1801076250012557,<function functionImportanceB at 0x7fc9cbbdb620>,<function functionImportanceC at 0x7fc9cbbdbea0>,<function functionImportanceA at 0x7fc9cbbdb7b8>,,,3.0,5.496611917000337,3.0,5.013434958000289,3.0,10.306973958999151,<function functiondiffC at 0x7fc9cc4f70d0>,<function functiondiffB at 0x7fc9cc4f78c8>,<function functiondiffA at 0x7fc9cc4f7950>,,,,,2757.292654666,2828.8461210410005,None,2815.9265000409996,None,2823.545983,None,patient1,001,2024_Jan_30_1359,2leo,2021.2.3,None,
3,17,Planifica un día en Barcelona con un amigo nuevo en la ciudad,Stimuli/17A1.jpg,Stimuli/17A2.jpg,Stimuli/17A3.jpg,Stimuli/17B1.jpg,Stimuli/17B2.jpg,Stimuli/17B3.jpg,Stimuli/17C1.jpg,Stimuli/17C2.jpg,Stimuli/17C3.jpg,,,,,0,27,27,17,,,,,,,,2833.5781506660005,None,2834.577767290999,None,2840.5693539999993,None,"[0.066, -0.395]","[0.306, 0.255]","[-0.377, 0.138]","[0.304, -0.26]","[0.07, 0.393]","[-0.378, -0.136]","[-0.203, -0.347]","[0.399, -0.003]","[-0.2, 0.346]",,9.007509249668146,24.746643499667698,16.41394737466726,"[0.11388888888888889, -0.16944444444444445, 0.0787037037037037]","[-0.3907407407407407, 0.337037037037037, 0.38981481481481484]","[1, 1, 1]","[0, 0, 0]","[0, 0, 0]","[9.00254891700024, 16.40785891700034, 24.741101166999215]",0.004507624667894561,24.745494665667138,['A1'],['B2'],['C3'],['blue'],['salmon'],['yellow'],2866.9105894999993,None,7.0,3.5785774999985733,2866.9105894999993,None,2888.046860332999,None,6.0,8.013491124998836,2877.5805739160005,None,7.0,10.464022041000135,2870.512332582999,None,5.0,7.021055625000372,<function functionImportanceB at 0x7fca6a5f28c8>,<function functionImportanceC at 0x7fca6a5f2268>,<function functionImportanceA at 0x7fca6a5f2c80>,,,1.0,5.328833542000211,1.0,4.979151458999695,2.0,8.013491124998836,<function functiondiffB at 0x7fc9cb157d08>,<function functiondiffA at 0x7fc9cb157e18>,<function functiondiffC at 0x7fc9cb157c80>,,,,,2841.6740588329994,2901.02881,None,2906.3774675410004,None,2896.0429755410005,None,patient1,001,2024_Jan_30_1359,2leo,2021.2.3,None,
3,38,Planifica cómo quieres salir a correr,Stimuli/38A1.jpg,Stimuli/38A2.jpg,Stimuli/38A3.jpg,Stimuli/38B1.jpg,Stimuli/38B2.jpg,Stimuli/38B3.jpg,Stimuli/38C1.jpg,Stimuli/38C2.jpg,Stimuli/38C3.jpg,,,,,0,28,28,38,,,,,,,,2908.401316915999,None,2909.3968507909995,None,2915.3860516250006,None,"[-0.203, -0.347]","[-0.2, 0.346]","[0.399, -0.003]","[0.066, -0.395]","[-0.377, 0.138]","[0.306, 0.255]","[0.304, -0.26]","[-0.378, -0.136]","[0.07, 0.393]",,14.211913332666882,27.802459915666986,20.152982915666144,"[0.3675925925925926, -0.35555555555555557, 0.08518518518518518]","[-0.023148148148148147, -0.1574074074074074, -0.4046296296296296]","[1, 1, 1]","[0, 0, 0]","[0, 0, 0]","[14.205789083000127, 20.1462879160008, 27.79623433300003]",0.005342415666746092,27.8009641656663,['A3'],['B1'],['C2'],['yellow'],['salmon'],['blue'],2944.794250166,None,6.0,2.955403791000208,2944.794250166,None,2955.7973348329997,None,5.0,15.520724459000121,2971.3803437080005,None,5.0,3.8138560830011556,2947.762233207999,None,5.0,8.013709374999962,<function functionImportanceB at 0x7fca49b81730>,<function functionImportanceA at 0x7fca49b81a60>,<function functionImportanceC at 0x7fca49b81b70>,,,2.0,4.746814625001207,2.0,3.036791415999687,5.0,15.520724459000121,<function functiondiffC at 0x7fca49b819d8>,<function functiondiffA at 0x7fca49b816a8>,<function functiondiffB at 0x7fca49b81f28>,,,,,2916.502172208,2978.2587460409995,None,2975.176643166,None,2983.0117325829997,None,patient1,001,2024_Jan_30_1359,2leo,2021.2.3,None,
3,7,Planifica tu desayuno de domingo,Stimuli/7A1.jpg,Stimuli/7A2.jpg,Stimuli/7A3.jpg,Stimuli/7B1.jpg,Stimuli/7B2.jpg,Stimuli/7B3.jpg,Stimuli/7C1.jpg,Stimuli/7C2.jpg,Stimuli/7C3.jpg,,,,,0,29,29,7,,,,,,,,2985.5608568749994,None,2986.5565685,None,2992.552042207999,None,"[-0.203, -0.347]","[0.399, -0.003]","[-0.2, 0.346]","[0.304, -0.26]","[0.07, 0.393]","[-0.378, -0.136]","[0.066, -0.395]","[0.306, 0.255]","[-0.377, 0.138]",,8.83879883433292,24.621988042332305,20.514944792332244,"[0.41388888888888886, 0.07222222222222222, -0.3509259259259259]","[0.007407407407407408, -0.33055555555555555, -0.14444444444444443]","[1, 1, 1]","[0, 0, 0]","[0, 0, 0]","[8.825631957999576, 20.50112658299986, 24.608205124999586]",0.012515167332821875,24.62012766733278,['A2'],['B3'],['C1'],['yellow'],['blue'],['salmon'],3020.159213290999,None,5.0,2.2629371249986434,3020.159213290999,None,3022.9336026250003,None,5.0,4.213494375000664,3027.0164425410003,None,5.0,2.5796118340003886,3029.9436880409994,None,8.0,9.763549708999562,<function functionImportanceA at 0x7fca49b81400>,<function functionImportanceC at 0x7fca49b81048>,<function functionImportanceB at 0x7fca49b81ea0>,,,1.0,4.620494541999506,1.0,6.7960024580006575,1.0,4.213494375000664,<function functiondiffC at 0x7fc9cdd7bae8>,<function functiondiffB at 0x7fc9cdd7b378>,<function functiondiffA at 0x7fc9cdd7bea0>,,,,,2995.073639332999,3052.709429749999,None,3039.3459315830005,None,3046.0784038330003,None,patient1,001,2024_Jan_30_1359,2leo,2021.2.3,None,
3,9,Planifica un picnic con amigos,Stimuli/9A1.jpg,Stimuli/9A2.jpg,Stimuli/9A3.jpg,Stimuli/9B1.jpg,Stimuli/9B2.jpg,Stimuli/9B3.jpg,Stimuli/9C1.jpg,Stimuli/9C2.jpg,Stimuli/9C3.jpg,,,,,0,30,30,9,,,,,,,,3080.6010360830005,None,3081.5958112499993,None,3087.585161416,None,"[0.306, 0.255]","[-0.377, 0.138]","[0.066, -0.395]","[0.399, -0.003]","[-0.2, 0.346]","[-0.203, -0.347]","[0.07, 0.393]","[-0.378, -0.136]","[0.304, -0.26]",,15.314452874998096,33.67878729199765,22.74630208399867,"[-0.35555555555555557, -0.3851851851851852, -0.20925925925925926]","[0.1398148148148148, -0.1361111111111111, 0.2962962962962963]","[1, 1, 1]","[0, 0, 0]","[0, 0, 0]","[15.308200540999678, 22.73908845799997, 33.67207841600066]",0.005667083998559974,33.67692824999904,['A2'],['B2'],['C2'],['salmon'],['blue'],['yellow'],3124.1421265829995,None,6.0,2.6358066249995318,3124.1421265829995,None,3139.8965020409996,None,5.0,5.904447417000483,3127.2614459159995,None,6.0,4.119202292000409,3131.328713625,None,6.0,8.453591167000923,<function functionImportanceC at 0x7fc9cde6f950>,<function functionImportanceB at 0x7fc9cde6f9d8>,<function functionImportanceA at 0x7fc9cde6fa60>,,,1.0,5.9623308749996795,1.0,4.6206106250010635,1.0,5.904447417000483,<function functiondiffA at 0x7fc9cdd7b9d8>,<function functiondiffC at 0x7fc9cdd7b730>,<function functiondiffB at 0x7fc9cdd7bc80>,,,,,3089.9875430829998,3145.7599139159993,None,3151.7100769999997,None,3155.991336249999,None,patient1,001,2024_Jan_30_1359,2leo,2021.2.3,None,
3,34,Planifica qué coche quieres comprar,Stimuli/34A1.jpg,Stimuli/34A2.jpg,Stimuli/34A3.jpg,Stimuli/34B1.jpg,Stimuli/34B2.jpg,Stimuli/34B3.jpg,Stimuli/34C1.jpg,Stimuli/34C2.jpg,Stimuli/34C3.jpg,,,,,0,31,31,34,,,,,,,,3159.793779374999,None,3160.7895500409995,None,3166.7845745409995,None,"[-0.203, -0.347]","[-0.2, 0.346]","[0.399, -0.003]","[0.304, -0.26]","[-0.378, -0.136]","[0.07, 0.393]","[0.066, -0.395]","[-0.377, 0.138]","[0.306, 0.255]",,42.48738204133406,33.42264166633504,51.02974249933504,"[0.30648148148148147, -0.21574074074074073, 0.3101851851851852]","[-0.2814814814814815, -0.3277777777777778, 0.25555555555555554]","[1, 1, 1]","[0, 0, 0]","[0, 0, 0]","[33.40698629200051, 42.47221766700022, 51.01343354200071]",0.014575958333807648,51.02807212433436,['A1'],['B1'],['C3'],['yellow'],['salmon'],['blue'],3220.0093426250005,None,7.0,4.112199625000358,3220.0093426250005,None,3227.5495122499997,None,7.0,6.029781042001559,3224.1781300000002,None,7.0,3.023952040999575,3233.4745994999994,None,1.0,6.697019499999442,<function functionImportanceC at 0x7fc9caf14d90>,<function functionImportanceA at 0x7fc9caf147b8>,<function functionImportanceB at 0x7fc9caf14400>,,,2.0,6.686726291000014,1.0,8.778678124999715,2.0,6.029781042001559,<function functiondiffB at 0x7fca49ff2ea0>,<function functiondiffA at 0x7fca49ff2f28>,<function functiondiffC at 0x7fca49ff2e18>,,,,,3168.5090008749994,3249.0447208749993,None,3255.411410416,None,3240.144152666,None,patient1,001,2024_Jan_30_1359,2leo,2021.2.3,None,
3,23,Planifica un viaje a la ciudad,Stimuli/23A1.jpg,Stimuli/23A2.jpg,Stimuli/23A3.jpg,Stimuli/23B1.jpg,Stimuli/23B2.jpg,Stimuli/23B3.jpg,Stimuli/23C1.jpg,Stimuli/23C2.jpg,Stimuli/23C3.jpg,,,,,0,32,32,23,,,,,,,,3263.650915832999,None,3264.6537464579997,None,3270.6502390410005,None,"[-0.378, -0.136]","[0.304, -0.26]","[0.07, 0.393]","[-0.2, 0.346]","[-0.203, -0.347]","[0.399, -0.003]","[-0.377, 0.138]","[0.066, -0.395]","[0.306, 0.255]",,35.95289412466627,28.737547791666657,43.012139124666646,"[-0.16296296296296298, -0.30925925925925923, 0.07592592592592592]","[-0.33796296296296297, -0.08796296296296297, -0.38796296296296295]","[1, 1, 1]","[0, 0, 0]","[0, 0, 0]","[28.732895957999062, 35.948738082999625, 43.007053583000015]",0.003646208666395978,43.01056933366635,['A1'],['B2'],['C2'],['yellow'],['salmon'],['blue'],3315.258899082999,None,7.0,1.6118447089993424,3315.258899082999,None,3321.5936406250003,None,5.0,6.8373657499996625,3316.898529291,None,4.0,4.669825916998889,3328.448804915999,None,7.0,7.180723208000927,<function functionImportanceC at 0x7fc9cb157a60>,<function functionImportanceA at 0x7fc9cb157840>,<function functionImportanceB at 0x7fc9cb157510>,,,1.0,4.655331957999806,1.0,9.646099083000081,1.0,6.8373657499996625,<function functiondiffA at 0x7fc9ce3792f0>,<function functiondiffC at 0x7fc9ce379c80>,<function functiondiffB at 0x7fc9ce3798c8>,,,,,3271.756091333,3335.6250332500003,None,3340.2921009580004,None,3345.431524374999,None,patient1,001,2024_Jan_30_1359,2leo,2021.2.3,None,
3,20,Planifica una fiesta de té con tus amigas,Stimuli/20A1.jpg,Stimuli/20A2.jpg,Stimuli/20A3.jpg,Stimuli/20B1.jpg,Stimuli/20B2.jpg,Stimuli/20B3.jpg,Stimuli/20C1.jpg,Stimuli/20C2.jpg,Stimuli/20C3.jpg,,,,,0,33,33,20,,,,,,,,3354.599201125,None,3355.5944117500003,None,3361.583950208,None,"[0.306, 0.255]","[-0.377, 0.138]","[0.066, -0.395]","[0.07, 0.393]","[-0.378, -0.136]","[0.304, -0.26]","[0.399, -0.003]","[-0.2, 0.346]","[-0.203, -0.347]",,17.364585458666625,13.840891292667948,31.164733792667903,"[0.03425925925925926, 0.28703703703703703, -0.20277777777777778]","[0.3907407407407407, 0.20185185185185187, -0.325]","[1, 1, 1]","[0, 0, 0]","[0, 0, 0]","[13.82466258400018, 17.348828459000288, 31.147789833999923]",0.015299542666980415,31.163004458667274,['A1'],['B1'],['C3'],['blue'],['salmon'],['yellow'],3394.873687957999,None,6.0,3.0968813330000557,3394.873687957999,None,3405.5755698329995,None,4.0,10.362949999998818,3397.9930068329995,None,7.0,3.3798026659987954,3401.961574875,None,7.0,4.180708208001306,<function functionImportanceC at 0x7fc9ce090f28>,<function functionImportanceB at 0x7fc9ce090950>,<function functionImportanceA at 0x7fc9ce0908c8>,,,2.0,17.819452290999834,6.0,7.785895458000596,2.0,10.362949999998818,<function functiondiffA at 0x7fc9cbaf0f28>,<function functiondiffC at 0x7fc9cbaf06a8>,<function functiondiffB at 0x7fc9cbaf0598>,,,,,3363.239510583,3415.942864666,None,3433.7909807079996,None,3446.7443100830005,None,patient1,001,2024_Jan_30_1359,2leo,2021.2.3,None,
3,43,Planifica la casa de tus sueños,Stimuli/43A1.jpg,Stimuli/43A2.jpg,Stimuli/43A3.jpg,Stimuli/43B1.jpg,Stimuli/43B2.jpg,Stimuli/43B3.jpg,Stimuli/43C1.jpg,Stimuli/43C2.jpg,Stimuli/43C3.jpg,,,,,0,34,34,43,,,,,,,,3453.4928364999996,None,3454.4890485409996,None,3460.483016582999,None,"[0.07, 0.393]","[0.304, -0.26]","[-0.378, -0.136]","[0.306, 0.255]","[0.066, -0.395]","[-0.377, 0.138]","[0.399, -0.003]","[-0.203, -0.347]","[-0.2, 0.346]",,33.67622362566908,30.009708416668218,25.160116958668368,"[-0.175, -0.32037037037037036, 0.08333333333333333]","[-0.3212962962962963, 0.1037037037037037, 0.37037037037037035]","[1, 1, 1]","[0, 0, 0]","[0, 0, 0]","[25.145697541000118, 29.995481916001154, 33.662763583000924]",0.013022500668739667,33.67496608366855,['A1'],['B3'],['C2'],['salmon'],['blue'],['yellow'],3495.7391338750003,None,7.0,2.302547166000295,3495.7391338750003,None,3498.0758585410003,None,5.0,6.012604792000275,3504.092252708,None,5.0,2.963718582999718,3507.098104375,None,7.0,4.270681708001575,<function functionImportanceA at 0x7fc9cdd7b7b8>,<function functionImportanceC at 0x7fc9cdd7b268>,<function functionImportanceB at 0x7fc9cdd7b840>,,,2.0,3.612950541999453,2.0,7.5033514159986225,5.0,6.012604792000275,<function functiondiffC at 0x7fca49d55268>,<function functiondiffA at 0x7fca49ff2400>,<function functiondiffB at 0x7fca49d55d08>,,,,,3461.5910431249995,3514.5437920410004,None,3511.3404995830006,None,3518.158530249999,None,patient1,001,2024_Jan_30_1359,2leo,2021.2.3,None,
3,28,Planifica un viaje de camping de una semana en España,Stimuli/28A1.jpg,Stimuli/28A2.jpg,Stimuli/28A3.jpg,Stimuli/28B1.jpg,Stimuli/28B2.jpg,Stimuli/28B3.jpg,Stimuli/28C1.jpg,Stimuli/28C2.jpg,Stimuli/28C3.jpg,,,,,0,35,35,28,,,,,,,,3525.1758037500003,None,3526.1740485829996,None,3532.1656534159993,None,"[-0.378, -0.136]","[0.304, -0.26]","[0.07, 0.393]","[-0.377, 0.138]","[0.066, -0.395]","[0.306, 0.255]","[-0.2, 0.346]","[-0.203, -0.347]","[0.399, -0.003]",,11.77766504200008,35.16875666700071,29.761253417000262,"[0.0962962962962963, -0.15462962962962962, -0.3333333333333333]","[0.3962962962962963, -0.3574074074074074, 0.09351851851851851]","[1, 1, 1]","[0, 0, 0]","[0, 0, 0]","[11.76073816600001, 29.743728999999803, 35.1517801659993]",0.016075499999715248,35.16774804200031,['A3'],['B1'],['C2'],['salmon'],['blue'],['yellow'],3568.890377083,None,6.0,2.272039000001314,3568.890377083,None,3571.1933595829996,None,7.0,2.796884207999028,3579.3763226249994,None,5.0,4.813222791000953,3573.9920388329992,None,6.0,5.380783167000118,<function functionImportanceA at 0x7fc9cba60598>,<function functionImportanceB at 0x7fc9cba60f28>,<function functionImportanceC at 0x7fc9cba60c80>,,,2.0,3.4725070420008706,2.0,2.7958855830001994,2.0,2.796884207999028,<function functiondiffC at 0x7fc9c8adbae8>,<function functiondiffB at 0x7fc9c8adb8c8>,<function functiondiffA at 0x7fc9c8adb598>,,,,,3533.242963249999,3591.8256693330004,None,3584.1926589159993,None,3588.9935467079995,None,patient1,001,2024_Jan_30_1359,2leo,2021.2.3,None,
3,0,planear una barbacoa,Stimuli/0A1.jpg,Stimuli/0A2.jpg,Stimuli/0A3.jpg,Stimuli/0B1.jpg,Stimuli/0B2.jpg,Stimuli/0B3.jpg,Stimuli/0C1.jpg,Stimuli/0C2.jpg,Stimuli/0C3.jpg,,,,,0,36,36,0,,,,,,,,3594.798920833,None,3595.8020311660002,None,3601.7982203329993,None,"[-0.378, -0.136]","[0.304, -0.26]","[0.07, 0.393]","[-0.2, 0.346]","[-0.203, -0.347]","[0.399, -0.003]","[-0.377, 0.138]","[0.066, -0.395]","[0.306, 0.255]",,28.562432375334538,30.703728917334956,37.588258333335034,"[0.032407407407407406, -0.16574074074074074, 0.22037037037037038]","[0.32592592592592595, 0.32407407407407407, 0.19537037037037036]","[1, 1, 1]","[0, 0, 0]","[0, 0, 0]","[28.55790445800085, 30.698984500000734, 37.58286125000086]",0.0038186673355085077,37.58584341733513,['A3'],['B1'],['C3'],['yellow'],['salmon'],['blue'],3641.338633083,None,5.0,4.336016582999946,3641.338633083,None,3646.091427833,None,4.0,5.079231957999582,3650.791788208,None,3.0,3.1967616670008283,3654.00823125,None,4.0,5.947408624999298,<function functionImportanceA at 0x7fc9cc4f7f28>,<function functionImportanceC at 0x7fc9cc4f7840>,<function functionImportanceB at 0x7fc9cc4f7d90>,,,1.0,5.020707083000161,1.0,9.321240708000914,1.0,5.079231957999582,<function functiondiffB at 0x7fc9ce379510>,<function functiondiffC at 0x7fc9ce379a60>,<function functiondiffA at 0x7fc9ce379400>,,,,,3603.2700216249996,3675.3091635830006,None,3669.290206291,None,3659.954491458,None,patient1,001,2024_Jan_30_1359,2leo,2021.2.3,None,
3,29,Planifica un día en la montaña,Stimuli/29A1.jpg,Stimuli/29A2.jpg,Stimuli/29A3.jpg,Stimuli/29B1.jpg,Stimuli/29B2.jpg,Stimuli/29B3.jpg,Stimuli/29C1.jpg,Stimuli/29C2.jpg,Stimuli/29C3.jpg,,,,,0,37,37,29,,,,,,,,3679.4917043749992,None,3680.4854897080004,None,3686.4814383329995,None,"[-0.203, -0.347]","[0.399, -0.003]","[-0.2, 0.346]","[0.066, -0.395]","[0.306, 0.255]","[-0.377, 0.138]","[0.304, -0.26]","[0.07, 0.393]","[-0.378, -0.136]",,38.746313500665565,29.856597083666202,43.17194166766603,"[-0.37222222222222223, 0.33055555555555555, 0.4, 0.05185185185185185]","[0.11851851851851852, 0.2388888888888889, -0.016666666666666666, 0.33425925925925926]","[1, 1, 1, 1]","[0, 0, 0, 0]","[0, 0, 0, 0]","[29.854795416998968, 31.21172866699999, 38.74511787499978, 43.169936291998965]",0.000569250665648724,43.17040120866659,['A2'],['B3'],['C2'],['blue'],['salmon'],['yellow'],3731.254687666,None,7.0,3.7886702910000167,3731.254687666,None,3737.7897028749994,None,6.0,3.4885806250003952,3741.2457944159996,None,5.0,16.839053749999948,3735.0588255410003,None,7.0,2.673458875000506,<function functionImportanceB at 0x7fc9cba58730>,<function functionImportanceA at 0x7fc9cba58e18>,<function functionImportanceC at 0x7fc9cba58048>,,,1.0,2.6368007909986773,1.0,4.313568249999662,1.0,3.4885806250003952,<function functiondiffB at 0x7fca49ff28c8>,<function functiondiffC at 0x7fca49ff29d8>,<function functiondiffA at 0x7fca49ff21e0>,,,,,3687.589995708,3765.2225180410005,None,3762.4227515000002,None,3758.0922791659996,None,patient1,001,2024_Jan_30_1359,2leo,2021.2.3,None,
3,14,Planifica tu propia pizza para la cena,Stimuli/14A1.jpg,Stimuli/14A2.jpg,Stimuli/14A3.jpg,Stimuli/14B1.jpg,Stimuli/14B2.jpg,Stimuli/14B3.jpg,Stimuli/14C1.jpg,Stimuli/14C2.jpg,Stimuli/14C3.jpg,,,,,0,38,38,14,,,,,,,,3767.35797825,None,3768.352024665999,None,3774.3474448750003,None,"[-0.2, 0.346]","[0.399, -0.003]","[-0.203, -0.347]","[-0.378, -0.136]","[0.07, 0.393]","[0.304, -0.26]","[-0.377, 0.138]","[0.306, 0.255]","[0.066, -0.395]",,43.13223662499877,52.248878332999084,30.866662917000212,"[0.125, 0.3037037037037037, 0.3972222222222222, -0.36203703703703705]","[-0.35555555555555557, 0.225, -0.037037037037037035, -0.14444444444444443]","[1, 1, 1, 1]","[0, 0, 0, 0]","[0, 0, 0, 0]","[30.850628000000142, 32.5506521669995, 43.11711395800012, 52.23343874999955]",0.014546999998856336,52.247196166999856,['A2'],['B1'],['C3'],['blue'],['yellow'],['salmon'],3828.1546607910004,None,7.0,1.7784022499999992,3828.1546607910004,None,3829.9570525,None,6.0,2.6361189159997593,3832.5949112079998,None,5.0,5.04564820899941,3837.6908653329992,None,5.0,3.2977920840003208,<function functionImportanceA at 0x7fc9cba607b8>,<function functionImportanceC at 0x7fc9cba60510>,<function functionImportanceB at 0x7fc9cba60d90>,,,3.0,3.055956917000003,3.0,10.413538666998647,2.0,2.6361189159997593,<function functiondiffB at 0x7fc9cba60b70>,<function functiondiffA at 0x7fc9cba60bf8>,<function functiondiffC at 0x7fc9cba60730>,,,,,3775.425834791,3851.3878545829994,None,3854.4536612909997,None,3840.9897736250005,None,patient1,001,2024_Jan_30_1359,2leo,2021.2.3,None,
3,36,Planifica tus compras de ropa nueva,Stimuli/36A1.jpg,Stimuli/36A2.jpg,Stimuli/36A3.jpg,Stimuli/36B1.jpg,Stimuli/36B2.jpg,Stimuli/36B3.jpg,Stimuli/36C1.jpg,Stimuli/36C2.jpg,Stimuli/36C3.jpg,,,,,0,39,39,36,,,,,,,,3864.5813666659997,None,3865.5857429999996,None,3871.580125875,None,"[0.399, -0.003]","[-0.2, 0.346]","[-0.203, -0.347]","[0.07, 0.393]","[-0.378, -0.136]","[0.304, -0.26]","[0.306, 0.255]","[-0.377, 0.138]","[0.066, -0.395]",,49.746631833335414,34.54730212533468,64.71414454133446,"[0.2657407407407407, 0.09537037037037037, 0.36574074074074076, -0.3435185185185185]","[-0.25833333333333336, 0.37037037037037035, -0.03611111111111111, 0.11666666666666667]","[1, 1, 1, 1]","[0, 0, 0, 0]","[0, 0, 0, 0]","[34.53924233399994, 42.33963641700029, 49.73931441700006, 64.70568454200111]",0.006903625335326069,64.71253079133567,['A1'],['B3'],['C2'],['blue'],['yellow'],['salmon'],3937.852623290999,None,6.0,3.0967615419995127,3937.852623290999,None,3948.3218825410004,None,6.0,3.4796983750002255,3944.1563480410005,None,6.0,4.153726917000313,3940.978059957999,None,6.0,3.163196790999791,<function functionImportanceB at 0x7fc9cb157730>,<function functionImportanceC at 0x7fc9cb157f28>,<function functionImportanceA at 0x7fc9cb157488>,,,1.0,3.7861158340001566,1.0,3.152949625000474,1.0,3.4796983750002255,<function functiondiffC at 0x7fca427d1f28>,<function functiondiffA at 0x7fca427d17b8>,<function functiondiffB at 0x7fca427d1e18>,,,,,3872.6617674999998,3955.9202351660006,None,3951.821221,None,3959.706804915999,None,patient1,001,2024_Jan_30_1359,2leo,2021.2.3,None,
3,44,Planea una fiesta en tu casa,Stimuli/44A1.jpg,Stimuli/44A2.jpg,Stimuli/44A3.jpg,Stimuli/44B1.jpg,Stimuli/44B2.jpg,Stimuli/44B3.jpg,Stimuli/44C1.jpg,Stimuli/44C2.jpg,Stimuli/44C3.jpg,,,,,0,40,40,44,,,,,,,,3962.3929415410003,None,3963.3903884579995,None,3969.3795067499996,None,"[0.066, -0.395]","[0.306, 0.255]","[-0.377, 0.138]","[0.304, -0.26]","[0.07, 0.393]","[-0.378, -0.136]","[-0.203, -0.347]","[0.399, -0.003]","[-0.2, 0.346]",,16.17724616600026,12.703017290999924,22.53629545700096,"[0.30462962962962964, 0.05740740740740741, 0.387037037037037]","[-0.26944444444444443, -0.44722222222222224, 0.001851851851851852]","[1, 1, 1]","[0, 0, 0]","[0, 0, 0]","[12.690255625000646, 16.164941875000295, 22.52294641700064]",0.011869998999827658,22.534748957001284,['A1'],['B1'],['C2'],['salmon'],['blue'],['yellow'],3993.471119291,None,6.0,3.0628771249994315,3993.471119291,None,3996.555589541,None,7.0,11.429757124999014,4014.0571337500005,None,7.0,4.320048166999186,4008.020287083,None,7.0,6.037439583000378,<function functionImportanceA at 0x7fca6a5e9400>,<function functionImportanceB at 0x7fca6a5e97b8>,<function functionImportanceC at 0x7fca6a5e9c80>,,,1.0,4.153519957999379,1.0,3.669894041999214,1.0,11.429757124999014,<function functiondiffC at 0x7fc9cde6fc80>,<function functiondiffB at 0x7fc9cde6f7b8>,<function functiondiffA at 0x7fc9cde6f488>,,,,,3970.460690291,4026.5701396660006,None,4018.387051791,None,4022.904865916,None,patient1,001,2024_Jan_30_1359,2leo,2021.2.3,None,
