,trial.thisN,participant,Condition,N_Scenario,A1pos,A2pos,A3pos,B1pos,B2pos,B3pos,C1pos,C2pos,C3pos,Imagesdecision_started,decisiontimeA,decisiontimeB,decisiontimeC,clicked_optionA,clicked_optionB,clicked_optionC,slider_confidence_response,decisiontimetotal,decisiontime1,decisiontime2,Imagesdecision_start,Imagesdecision_stopped,et_decision_start,et_decision_end,valid_datapoints,n_3_1,n_3_2,n_3_3,n_3_4,n_3_5,n_3_6,n_3_7,n_3_8,n_3_9,t_A1,t_A2,t_A3,t_B1,t_B2,t_B3,t_C1,t_C2,t_C3,t_cat_total,f_categoryA,f_categoryB,f_categoryC,first_look,first_switch,WC1,WC2,WC3,B,W,W_B_total,decision1_category,decision2_category,decision3_category,category1_imp,category2_imp,category3_imp,category1_diff,category2_diff,category3_diff,f_category1,f_category2,f_category3,decision1_1category,decision1_2category,decision1_3category,decision2_1category,decision2_2category,decision2_3category,decision3_1category,decision3_2category,decision3_3category,Imagesdecision_start1,Imagesdecision_stopped1,RT1,Imagesdecision_start2,Imagesdecision_stopped2,RT2,Imagesdecision_start3,Imagesdecision_stopped3,RT3,RTTotal,imp_category,diff_category,imp_category_mean,diff_category_mean
0,0.0,1,3,38,3_5,3_8,3_2,3_6,3_9,3_3,3_4,3_7,3_1,295.8860082000001,9.407751480000115,13.891098279999824,3.341508680000061,['A2'],['B1'],['C2'],8.0,13.891098279999824,3.341508680000061,9.407751480000115,295.8860082000001,309.77710647999993,296.1377456,309.7544097,100.0,254.0,179.0,145.0,142.0,99.0,226.0,309.0,367.0,358.0,0.825,3.058333333333333,1.4916666666666667,1.8833333333333333,2.9833333333333334,1.2083333333333333,1.1833333333333333,2.575,2.1166666666666667,17.325,0.31024531024531027,0.35064935064935066,0.33910533910533913,,,34.8,17.4,34.8,0.9425287356321839,0.05747126436781609,87,C,A,B,10.0,10.0,6.0,3.0,0.0,2.0,0.33910533910533913,0.31024531024531027,0.35064935064935066,7,4,1,8,5,2,6,9,3,295.8860082000001,299.22751688000017,3.341508680000061,299.22751688000017,305.2937596800002,6.066242800000055,305.2937596800002,309.77710647999993,4.483346799999708,13.891098279999824,26.0,5.0,8.666666666666666,1.6666666666666667
1,1.0,1,3,18,3_3,3_6,3_9,3_1,3_4,3_7,3_2,3_5,3_8,350.94783019999977,2.476755619999949,7.71028841999987,5.226999019999767,['A2'],['B1'],['C1'],10.0,7.71028841999987,2.476755619999949,5.226999019999767,350.94783019999977,358.65811861999964,351.2046757999997,358.62972260000015,100.0,201.0,148.0,55.0,69.0,48.0,165.0,142.0,127.0,142.0,0.4583333333333333,1.375,1.1833333333333333,1.675,0.575,1.1833333333333333,1.2333333333333334,0.4,1.0583333333333333,9.141666666666666,0.32999088422971745,0.3755697356426619,0.2944393801276208,,,0.0,16.0,16.0,0.9375,0.0625,32,A,C,B,10.0,2.0,10.0,0.0,0.0,0.0,0.32999088422971745,0.2944393801276208,0.3755697356426619,6,3,9,2,5,8,1,4,7,350.94783019999977,353.4245858199997,2.476755619999949,353.4245858199997,356.17482921999954,2.7502433999998175,356.17482921999954,358.65811861999964,2.4832894000001033,7.71028841999987,22.0,0.0,7.333333333333333,0.0
2,2.0,1,3,31,3_8,3_2,3_5,3_9,3_3,3_6,3_7,3_1,3_4,393.0780285000001,8.88345468000034,5.350310280000031,14.367092180000329,['A3'],['B2'],['C2'],5.0,14.367092180000329,5.350310280000031,8.88345468000034,393.0780285000001,407.4451206800004,393.3131476999997,407.3966142999998,100.0,242.0,119.0,267.0,32.0,245.0,176.0,337.0,229.0,208.0,1.9083333333333334,0.9916666666666667,2.0416666666666665,1.7333333333333334,2.225,1.4666666666666666,2.808333333333333,2.0166666666666666,0.26666666666666666,15.458333333333332,0.31967654986522914,0.3509433962264151,0.3293800539083558,,,11.833333333333334,35.5,23.666666666666668,0.9154929577464789,0.08450704225352113,71,B,A,C,7.0,5.0,3.0,8.0,7.0,6.0,0.3509433962264151,0.31967654986522914,0.3293800539083558,3,9,6,5,8,2,1,7,4,393.0780285000001,398.4283387800001,5.350310280000031,398.4283387800001,401.9614831800004,3.5331444000003103,401.9614831800004,407.4451206800004,5.483637499999986,14.367092180000327,15.0,21.0,5.0,7.0
3,3.0,1,3,36,3_7,3_4,3_1,3_9,3_6,3_3,3_8,3_5,3_2,455.86963620000006,14.71111466000002,21.34431395999991,8.744842959999914,['A2'],['B2'],['C2'],3.0,21.34431395999991,8.744842959999914,14.71111466000002,455.86963620000006,477.21395015999997,456.12182419999954,477.1802816999998,99.2879746835443,260.0,131.0,361.0,213.0,287.0,401.0,318.0,386.0,309.0,2.65,1.775,2.1666666666666665,2.575,3.341666666666667,3.0083333333333333,3.216666666666667,2.3916666666666666,1.0916666666666666,22.21666666666667,0.2966991747936984,0.40172543135783945,0.3015753938484621,,,17.333333333333332,34.666666666666664,52.0,0.9423076923076923,0.057692307692307696,104,C,A,B,8.0,5.0,9.0,5.0,7.0,9.0,0.3015753938484621,0.2966991747936984,0.40172543135783945,5,8,2,4,7,1,6,9,3,455.86963620000006,464.61447916,8.744842959999914,464.61447916,470.5807508600001,5.966271700000107,470.5807508600001,477.21395015999997,6.633199299999887,21.34431395999991,22.0,21.0,7.333333333333333,7.0
4,4.0,1,3,39,3_4,3_7,3_1,3_5,3_8,3_2,3_6,3_9,3_3,520.9570266000001,16.58527452999988,11.885655130000032,6.402599630000168,['A1'],['B2'],['C1'],4.0,16.58527452999988,6.402599630000168,11.885655130000032,520.9570266000001,537.5423011299999,521.2137848000002,537.5137395000002,99.43791517629023,212.0,231.0,272.0,160.0,158.0,209.0,283.0,496.0,178.0,1.3333333333333333,2.3583333333333334,1.7666666666666666,1.3166666666666667,4.133333333333334,1.925,1.7416666666666667,1.4833333333333334,2.2666666666666666,18.325,0.297862664847658,0.4024556616643929,0.2996816734879491,,,29.599999999999998,44.4,0.0,0.9324324324324325,0.06756756756756757,74,C,B,A,4.0,6.0,8.0,8.0,7.0,2.0,0.2996816734879491,0.4024556616643929,0.297862664847658,6,9,3,8,5,2,4,7,1,520.9570266000001,527.3596262300002,6.402599630000168,527.3596262300002,532.8426817300001,5.483055499999864,532.8426817300001,537.5423011299999,4.699619399999847,16.58527452999988,18.0,17.0,6.0,5.666666666666667
5,5.0,1,3,4,3_6,3_3,3_9,3_5,3_2,3_8,3_4,3_1,3_7,586.1778727000001,4.5205928099999255,7.820561509999607,12.154151909999657,['A3'],['B3'],['C3'],8.0,12.154151909999657,4.5205928099999255,7.820561509999607,586.1778727000001,598.3320246099997,586.4139073000001,598.2724474999995,100.0,129.0,81.0,155.0,69.0,81.0,89.0,317.0,331.0,327.0,0.7416666666666667,1.2916666666666667,2.725,0.675,0.675,2.7583333333333333,0.575,1.075,2.6416666666666666,13.158333333333333,0.36162127929069027,0.3122229259024699,0.3261557948068397,,,27.599999999999998,27.599999999999998,13.799999999999999,0.927536231884058,0.07246376811594203,69,A,B,C,3.0,10.0,9.0,2.0,0.0,1.0,0.36162127929069027,0.3122229259024699,0.3261557948068397,9,6,3,8,5,2,7,4,1,586.1778727000001,590.69846551,4.5205928099999255,590.69846551,593.9984342099997,3.299968699999681,593.9984342099997,598.3320246099997,4.333590400000048,12.154151909999655,22.0,3.0,7.333333333333333,1.0
6,6.0,1,3,12,3_7,3_4,3_1,3_8,3_5,3_2,3_9,3_6,3_3,643.2151279999998,27.611404329999917,12.363168129999847,7.712723229999938,['A1'],['B2'],['C3'],2.0,27.611404329999917,7.712723229999938,12.363168129999847,643.2151279999998,670.8265323299997,643.4725933999998,670.7894345999998,98.81061299176578,529.0,254.0,331.0,22.0,419.0,487.0,474.0,696.0,763.0,3.95,0.18333333333333332,4.408333333333333,5.8,3.4916666666666667,2.1166666666666667,6.358333333333333,4.058333333333334,2.7583333333333333,33.125,0.25786163522012584,0.34440251572327046,0.3977358490566038,,,39.33333333333333,78.66666666666666,58.99999999999999,0.9491525423728814,0.05084745762711865,177,C,B,A,10.0,9.0,8.0,6.0,9.0,2.0,0.3977358490566038,0.34440251572327046,0.25786163522012584,3,9,6,5,8,2,7,4,1,643.2151279999998,650.9278512299998,7.712723229999938,650.9278512299998,655.5782961299997,4.650444899999911,655.5782961299997,670.8265323299997,15.248236200000065,27.611404329999914,27.0,17.0,9.0,5.666666666666667
7,7.0,1,3,13,3_6,3_3,3_9,3_5,3_2,3_8,3_4,3_1,3_7,718.922106,3.261212440000236,7.510855940000056,16.160874140000033,['A3'],['B2'],['C1'],7.0,16.160874140000033,3.261212440000236,7.510855940000056,718.922106,735.08298014,719.1729630999998,735.0562826999999,99.26586261143157,193.0,311.0,114.0,464.0,103.0,110.0,293.0,245.0,315.0,0.9166666666666666,0.95,2.625,0.8583333333333333,2.591666666666667,2.0416666666666665,3.8666666666666667,1.6083333333333334,2.441666666666667,17.9,0.25093109869646185,0.30679702048417135,0.44227188081936686,,,34.8,23.2,0.0,0.9137931034482759,0.08620689655172414,58,A,B,C,6.0,8.0,9.0,1.0,4.0,8.0,0.25093109869646185,0.30679702048417135,0.44227188081936686,9,6,3,2,5,8,4,1,7,718.922106,722.1833184400002,3.261212440000236,722.1833184400002,726.43296194,4.24964349999982,726.43296194,735.08298014,8.650018199999977,16.160874140000033,23.0,13.0,7.666666666666667,4.333333333333333
8,8.0,1,3,7,3_2,3_8,3_5,3_1,3_7,3_4,3_3,3_9,3_6,779.2861514000001,8.387249759999577,5.320634259999679,2.40434845999971,['A3'],['B1'],['C1'],5.0,8.387249759999577,2.40434845999971,5.320634259999679,779.2861514000001,787.6734011599997,779.5230795000002,787.623231,100.0,171.0,143.0,140.0,66.0,120.0,74.0,126.0,182.0,142.0,1.1916666666666667,1.5166666666666666,1.0,1.425,1.05,0.55,1.1666666666666667,1.1833333333333333,0.6166666666666667,9.7,0.38230240549828176,0.31185567010309284,0.30584192439862545,,,0.0,45.0,0.0,0.9777777777777777,0.022222222222222223,45,C,B,A,9.0,8.0,2.0,-0.0,2.0,6.0,0.30584192439862545,0.31185567010309284,0.38230240549828176,3,9,6,1,7,4,5,2,8,779.2861514000001,781.6904998599998,2.40434845999971,781.6904998599998,784.6067856599998,2.9162857999999687,784.6067856599998,787.6734011599997,3.066615499999898,8.387249759999577,19.0,8.0,6.333333333333333,2.6666666666666665
9,9.0,1,3,44,3_4,3_1,3_7,3_6,3_3,3_9,3_5,3_2,3_8,830.2617925999998,21.07698419999997,4.927499999999782,16.543912999999975,['A3'],['B3'],['C3'],5.0,21.07698419999997,4.927499999999782,16.543912999999975,830.2617925999998,851.3387767999998,830.5149954999997,851.3069572999993,98.95833333333334,258.0,207.0,67.0,265.0,441.0,197.0,269.0,536.0,496.0,2.2083333333333335,2.15,2.2416666666666667,1.6416666666666666,0.5583333333333333,4.133333333333334,3.675,1.725,4.466666666666667,22.8,0.28947368421052627,0.2777777777777778,0.43274853801169594,,,42.0,21.0,21.0,0.9523809523809523,0.047619047619047616,84,B,C,A,7.0,9.0,10.0,3.0,9.0,6.0,0.2777777777777778,0.43274853801169594,0.28947368421052627,9,6,3,8,5,2,7,4,1,830.2617925999998,835.1892925999996,4.927499999999782,835.1892925999996,846.8057055999998,11.616413000000193,846.8057055999998,851.3387767999998,4.533071199999995,21.07698419999997,26.0,18.0,8.666666666666666,6.0
10,10.0,1,3,20,3_4,3_7,3_1,3_5,3_8,3_2,3_6,3_9,3_3,889.6431877999999,12.548689139999624,8.28221283999983,4.6493342399999165,['A3'],['B1'],['C1'],4.0,12.548689139999624,4.6493342399999165,8.28221283999983,889.6431877999999,902.1918769399995,889.8820254999996,902.1488008999995,100.0,263.0,139.0,116.0,114.0,134.0,258.0,235.0,227.0,233.0,0.95,1.9583333333333333,2.191666666666667,1.1166666666666667,1.8916666666666666,1.1583333333333334,2.15,1.9416666666666667,0.9666666666666667,14.325,0.35602094240837695,0.2908667830133799,0.3531122745782432,,,44.66666666666667,22.333333333333336,0.0,0.9552238805970149,0.04477611940298507,67,C,B,A,6.0,9.0,2.0,4.0,-0.0,6.0,0.3531122745782432,0.2908667830133799,0.35602094240837695,6,9,3,5,8,2,1,4,7,889.6431877999999,894.2925220399998,4.6493342399999165,894.2925220399998,897.9254006399997,3.6328785999999127,897.9254006399997,902.1918769399995,4.266476299999795,12.548689139999624,17.0,10.0,5.666666666666667,3.3333333333333335
11,11.0,1,3,28,3_1,3_4,3_7,3_2,3_5,3_8,3_3,3_6,3_9,944.1493420000002,17.359364660000665,11.24262276000036,4.759863060000498,['A3'],['B2'],['C1'],7.0,17.359364660000665,4.759863060000498,11.24262276000036,944.1493420000002,961.5087066600008,944.4072987999998,961.4822832999998,99.3170731707317,171.0,119.0,256.0,142.0,224.0,175.0,420.0,429.0,309.0,1.425,1.1833333333333333,3.5,0.9916666666666667,1.8666666666666667,3.575,2.1333333333333333,1.4583333333333333,2.575,18.708333333333336,0.32650334075723825,0.3438752783964365,0.32962138084632514,,,36.75,49.00000000000001,12.250000000000002,0.9183673469387755,0.08163265306122448,98,C,B,A,3.0,9.0,4.0,5.0,2.0,7.0,0.32962138084632514,0.3438752783964365,0.32650334075723825,3,6,9,5,2,8,7,1,4,944.1493420000002,948.9092050600007,4.759863060000498,948.9092050600007,955.3919647600005,6.4827596999998605,955.3919647600005,961.5087066600008,6.1167419000003065,17.359364660000665,16.0,14.0,5.333333333333333,4.666666666666667
12,12.0,1,3,25,3_6,3_3,3_9,3_4,3_1,3_7,3_5,3_2,3_8,1002.7360642,18.02074318999985,10.154672189999928,4.688111290000052,['A1'],['B3'],['C3'],7.0,18.02074318999985,4.688111290000052,10.154672189999928,1002.7360642,1020.7568073899998,1002.9740863999996,1020.7159526999994,98.87323943661971,195.0,228.0,166.0,147.0,163.0,253.0,324.0,634.0,550.0,2.1083333333333334,1.3833333333333333,4.583333333333333,1.225,1.625,2.7,1.3583333333333334,1.9,5.283333333333333,22.166666666666664,0.36428571428571427,0.25037593984962414,0.38533834586466165,,,0.0,77.25,25.750000000000004,0.9611650485436893,0.038834951456310676,103,C,B,A,10.0,2.0,4.0,0.0,6.0,7.0,0.38533834586466165,0.25037593984962414,0.36428571428571427,8,5,2,7,4,1,6,3,9,1002.7360642,1007.42417549,4.688111290000052,1007.42417549,1012.8907363899999,5.466560899999877,1012.8907363899999,1020.7568073899998,7.86607099999992,18.02074318999985,16.0,13.0,5.333333333333333,4.333333333333333
13,13.0,1,3,34,3_4,3_1,3_7,3_5,3_2,3_8,3_6,3_3,3_9,1060.2451342,9.548866779999116,5.665956679998999,13.466364779999369,['A1'],['B1'],['C2'],10.0,13.466364779999369,5.665956679998999,9.548866779999116,1060.2451342,1073.7114989799993,1060.4827166999999,1073.6662178999995,99.1156032849021,180.0,251.0,144.0,157.0,231.0,57.0,173.0,354.0,229.0,1.3083333333333333,1.5,1.4416666666666667,1.925,2.091666666666667,2.95,0.475,1.2,1.9083333333333334,14.8,0.28716216216216217,0.4707207207207207,0.2421171171171171,,,10.375,72.625,0.0,0.9036144578313253,0.0963855421686747,83,B,A,C,7.0,9.0,8.0,4.0,1.0,2.0,0.4707207207207207,0.28716216216216217,0.2421171171171171,5,2,8,4,1,7,3,6,9,1060.2451342,1065.911090879999,5.665956679998999,1065.911090879999,1069.794000979999,3.8829101000001174,1069.794000979999,1073.7114989799993,3.9174980000002506,13.466364779999367,24.0,7.0,8.0,2.3333333333333335
14,14.0,1,3,11,3_7,3_1,3_4,3_9,3_3,3_6,3_8,3_2,3_5,1116.3078603999998,11.283995830000094,4.450676229999772,8.517707829999836,['A2'],['B2'],['C2'],8.0,11.283995830000094,4.450676229999772,8.517707829999836,1116.3078603999998,1127.5918562299998,1116.5580162,1127.5663673999998,99.09228441754917,243.0,178.0,263.0,59.0,84.0,100.0,94.0,307.0,139.0,0.7833333333333333,2.025,0.49166666666666664,1.1583333333333334,2.191666666666667,0.8333333333333334,2.558333333333333,1.4833333333333334,0.7,12.225,0.26993865030674846,0.34219495569188824,0.3878663940013633,,,0.0,27.0,27.0,0.8888888888888888,0.1111111111111111,54,B,C,A,8.0,5.0,9.0,3.0,4.0,0.0,0.34219495569188824,0.3878663940013633,0.26993865030674846,3,9,6,2,8,5,1,7,4,1116.3078603999998,1120.7585366299995,4.450676229999772,1120.7585366299995,1124.8255682299996,4.067031600000064,1124.8255682299996,1127.5918562299998,2.7662880000002588,11.283995830000094,22.0,7.0,7.333333333333333,2.3333333333333335
15,15.0,1,3,0,3_4,3_1,3_7,3_6,3_3,3_9,3_5,3_2,3_8,1179.3431892,7.434851889999663,3.918602389999705,11.1020738899997,['A1'],['B1'],['C1'],8.0,11.1020738899997,3.918602389999705,7.434851889999663,1179.3431892,1190.4452630899998,1179.5832014999996,1190.4083887999996,100.0,88.0,70.0,48.0,217.0,241.0,201.0,142.0,303.0,234.0,1.8083333333333333,0.7333333333333333,1.1833333333333333,1.675,0.4,1.95,2.0083333333333333,0.5833333333333334,2.525,12.866666666666667,0.28950777202072536,0.3128238341968912,0.39766839378238344,,,29.0,29.0,0.0,0.9655172413793104,0.034482758620689655,58,B,A,C,1.0,6.0,2.0,3.0,1.0,6.0,0.3128238341968912,0.28950777202072536,0.39766839378238344,6,3,9,4,1,7,5,2,8,1179.3431892,1183.2617915899998,3.9186023899997053,1183.2617915899998,1186.7780410899998,3.516249499999958,1186.7780410899998,1190.4452630899998,3.667222000000038,11.102073889999701,9.0,10.0,3.0,3.3333333333333335
16,16.0,1,3,30,3_2,3_5,3_8,3_1,3_4,3_7,3_3,3_6,3_9,1231.7362021,9.721073769999292,3.588132869999299,15.204606469999362,['A1'],['B1'],['C2'],5.0,15.204606469999362,3.588132869999299,9.721073769999292,1231.7362021,1246.9408085699993,1231.9917861999998,1246.9086291999997,98.7716359575656,165.0,366.0,163.0,78.0,239.0,199.0,197.0,387.0,349.0,3.05,1.9916666666666667,3.225,1.375,0.65,1.6416666666666666,1.3583333333333334,1.6583333333333334,2.908333333333333,17.85833333333333,0.46290247316845545,0.20531964535697622,0.3317778814745684,,,41.0,41.0,0.0,0.975609756097561,0.024390243902439025,82,B,A,C,9.0,10.0,3.0,0.0,7.0,5.0,0.20531964535697622,0.46290247316845545,0.3317778814745684,1,4,7,2,5,8,6,3,9,1231.7362021,1235.3243349699992,3.588132869999299,1235.3243349699992,1241.4572758699992,6.132940899999994,1241.4572758699992,1246.9408085699993,5.483532700000069,15.204606469999362,22.0,12.0,7.333333333333333,4.0
17,17.0,1,3,15,3_2,3_8,3_5,3_1,3_7,3_4,3_3,3_9,3_6,1287.0860621000002,6.338280479999867,9.741317179999896,12.97230548000016,['A1'],['B1'],['C3'],7.0,12.97230548000016,6.338280479999867,9.741317179999896,1287.0860621000002,1300.0583675800003,1287.3253805999993,1300.0089122,99.34340118187788,389.0,146.0,147.0,102.0,90.0,202.0,80.0,408.0,264.0,1.2166666666666666,3.4,0.75,3.2416666666666667,0.6666666666666666,0.85,1.225,2.2,1.6833333333333333,15.233333333333334,0.35229759299781177,0.31236323851203496,0.33533916849015316,,,0.0,40.5,40.5,0.9506172839506173,0.04938271604938271,81,A,B,C,2.0,10.0,8.0,9.0,5.0,2.0,0.35229759299781177,0.31236323851203496,0.33533916849015316,2,8,5,1,7,4,6,3,9,1287.0860621000002,1293.42434258,6.338280479999867,1293.42434258,1296.82737928,3.4030367000000297,1296.82737928,1300.0583675800003,3.230988300000263,12.97230548000016,20.0,16.0,6.666666666666667,5.333333333333333
18,18.0,1,3,43,3_1,3_4,3_7,3_2,3_5,3_8,3_3,3_6,3_9,1341.3864046,15.683948429999871,3.6513786299997264,8.501706829999875,['A1'],['B3'],['C3'],3.0,15.683948429999871,3.6513786299997264,8.501706829999875,1341.3864046,1357.07035303,1341.6423731,1357.0424189999994,99.08058409951325,406.0,149.0,272.0,112.0,54.0,126.0,166.0,573.0,416.0,3.3833333333333333,0.9333333333333333,1.3833333333333333,1.2416666666666667,0.45,4.775,2.2666666666666666,1.05,3.466666666666667,18.95,0.30079155672823216,0.34124890061565527,0.3579595426561126,,,0.0,85.0,0.0,0.9764705882352941,0.023529411764705882,85,B,C,A,2.0,8.0,7.0,4.0,3.0,7.0,0.34124890061565527,0.3579595426561126,0.30079155672823216,8,2,5,9,3,6,1,4,7,1341.3864046,1345.0377832299998,3.6513786299997264,1345.0377832299998,1349.88811143,4.850328200000149,1349.88811143,1357.07035303,7.182241599999998,15.683948429999873,17.0,14.0,5.666666666666667,4.666666666666667
19,19.0,1,3,10,3_1,3_7,3_4,3_3,3_9,3_6,3_2,3_8,3_5,1398.3731615000002,17.86922844999981,6.536221849999947,3.686695249999957,['A2'],['B3'],['C3'],4.0,17.86922844999981,3.686695249999957,6.536221849999947,1398.3731615000002,1416.24238995,1398.6093626999996,1416.1843503999999,100.0,445.0,122.0,63.0,574.0,130.0,296.0,512.0,236.0,154.0,3.7083333333333335,4.266666666666667,4.783333333333333,0.525,1.2833333333333334,2.466666666666667,1.0166666666666666,1.9666666666666666,1.0833333333333333,21.099999999999998,0.6046603475513429,0.20260663507109009,0.19273301737756715,,,0.0,83.0,0.0,0.9518072289156626,0.04819277108433735,83,C,B,A,2.0,6.0,8.0,3.0,0.0,8.0,0.19273301737756715,0.20260663507109009,0.6046603475513429,5,2,8,6,3,9,7,1,4,1398.3731615000002,1402.05985675,3.686695249999957,1402.05985675,1404.90938335,2.84952659999999,1404.90938335,1416.24238995,11.333006599999862,17.86922844999981,16.0,11.0,5.333333333333333,3.6666666666666665
20,20.0,1,3,33,3_1,3_4,3_7,3_3,3_6,3_9,3_2,3_5,3_8,1464.0746663999998,7.896903700000166,12.69715780000024,3.5478339000001142,['A1'],['B2'],['C3'],3.0,12.69715780000024,3.5478339000001142,7.896903700000166,1464.0746663999998,1476.7718242,1464.3178893999998,1476.7347224,100.0,360.0,105.0,142.0,107.0,95.0,197.0,170.0,417.0,211.0,3.0,0.8916666666666667,1.4166666666666667,1.1833333333333333,1.6416666666666666,1.7583333333333333,0.875,0.7916666666666666,3.475,15.033333333333335,0.3531042128603104,0.3048780487804878,0.34201773835920174,,,10.666666666666666,21.333333333333332,16.0,0.8125,0.1875,48,C,A,B,5.0,9.0,7.0,2.0,-0.0,5.0,0.34201773835920174,0.3531042128603104,0.3048780487804878,8,2,5,1,4,7,6,3,9,1464.0746663999998,1467.6225003,3.5478339000001142,1467.6225003,1471.9715701,4.349069800000052,1471.9715701,1476.7718242,4.800254100000075,12.697157800000241,21.0,7.0,7.0,2.3333333333333335
21,21.0,1,3,29,3_6,3_3,3_9,3_4,3_1,3_7,3_5,3_2,3_8,1522.5931938,3.0250126699997963,13.174887369999851,7.825283969999873,['A2'],['B1'],['C1'],10.0,13.174887369999851,3.0250126699997963,7.825283969999873,1522.5931938,1535.76808117,1522.8432008999998,1535.7348646999994,98.83720930232558,198.0,169.0,119.0,199.0,306.0,142.0,233.0,228.0,129.0,1.1833333333333333,0.9916666666666667,1.075,1.6583333333333334,1.65,1.9416666666666667,2.55,1.4083333333333334,1.9,14.358333333333333,0.22634939059779455,0.36564132327336046,0.408009286128845,,,17.0,17.0,34.0,0.9411764705882353,0.058823529411764705,68,A,C,B,10.0,10.0,2.0,0.0,3.0,1.0,0.22634939059779455,0.408009286128845,0.36564132327336046,3,6,9,5,2,8,4,1,7,1522.5931938,1525.61820647,3.0250126699997963,1525.61820647,1530.41847777,4.800271300000077,1530.41847777,1535.76808117,5.349603399999978,13.174887369999851,22.0,4.0,7.333333333333333,1.3333333333333333
22,22.0,1,3,41,3_5,3_2,3_8,3_6,3_3,3_9,3_4,3_1,3_7,1571.7161713,9.150474499999746,4.733943299999737,15.151132299999972,['A1'],['B3'],['C3'],3.0,15.151132299999972,4.733943299999737,9.150474499999746,1571.7161713,1586.8673036,1571.9684375000002,1586.8351082999998,99.2156862745098,231.0,142.0,195.0,229.0,213.0,120.0,318.0,348.0,257.0,1.775,1.1833333333333333,2.9,1.0,1.625,2.1416666666666666,1.9083333333333334,1.925,2.65,17.108333333333334,0.342425718460789,0.2786166585484656,0.37895762299074526,,,42.285714285714285,21.142857142857142,10.571428571428571,0.9054054054054054,0.0945945945945946,74,B,A,C,7.0,10.0,2.0,2.0,0.0,6.0,0.2786166585484656,0.342425718460789,0.37895762299074526,9,6,3,5,2,8,7,4,1,1571.7161713,1576.4501145999998,4.733943299999737,1576.4501145999998,1580.8666457999998,4.4165312000000085,1580.8666457999998,1586.8673036,6.000657800000226,15.151132299999972,19.0,8.0,6.333333333333333,2.6666666666666665
23,23.0,1,3,27,3_8,3_5,3_2,3_7,3_4,3_1,3_9,3_6,3_3,1628.5091031000002,10.38918208999985,15.47262598999987,3.089829689999988,['A3'],['B3'],['C3'],2.0,15.47262598999987,3.089829689999988,10.38918208999985,1628.5091031000002,1643.98172909,1628.7602559000002,1643.9520460999997,98.79385964912281,268.0,262.0,329.0,139.0,214.0,75.0,240.0,296.0,196.0,2.466666666666667,1.7833333333333334,2.183333333333333,2.0,1.1583333333333334,2.2333333333333334,1.6333333333333333,0.625,2.7416666666666667,16.825,0.3823675086676573,0.320455671124319,0.2971768202080238,,,14.600000000000001,43.800000000000004,14.600000000000001,0.9315068493150684,0.0684931506849315,73,C,A,B,9.0,8.0,3.0,2.0,3.0,6.0,0.2971768202080238,0.3823675086676573,0.320455671124319,3,9,6,2,8,5,1,7,4,1628.5091031000002,1631.5989327900002,3.0898296899999877,1631.5989327900002,1638.89828519,7.2993523999998615,1638.89828519,1643.98172909,5.08344390000002,15.47262598999987,20.0,11.0,6.666666666666667,3.6666666666666665
24,24.0,1,3,42,3_1,3_4,3_7,3_3,3_6,3_9,3_2,3_5,3_8,1677.0076909,10.806805689999235,14.07346638999934,7.424191689999134,['A2'],['B2'],['C3'],5.0,14.07346638999934,7.424191689999134,10.806805689999235,1677.0076909,1691.0811572899993,1677.2604906999995,1691.0439043999995,100.0,123.0,237.0,62.0,230.0,161.0,164.0,127.0,533.0,260.0,1.025,1.9166666666666667,1.0583333333333333,0.5166666666666667,1.3666666666666667,2.1666666666666665,1.975,1.3416666666666666,4.441666666666666,15.808333333333334,0.2530311017395888,0.2561939905113337,0.49077490774907745,,,8.0,40.0,8.0,0.875,0.125,56,C,A,B,9.0,4.0,10.0,5.0,7.0,0.0,0.49077490774907745,0.2530311017395888,0.2561939905113337,8,2,5,4,1,7,6,3,9,1677.0076909,1684.431882589999,7.424191689999134,1684.431882589999,1687.8144965899992,3.3826140000001033,1687.8144965899992,1691.0811572899993,3.2666607000001022,14.07346638999934,23.0,12.0,7.666666666666667,4.0
25,25.0,1,3,14,3_9,3_6,3_3,3_8,3_5,3_2,3_7,3_4,3_1,1730.8725602,8.236750799999754,3.820625800000016,16.154033699999673,['A1'],['B1'],['C2'],7.0,16.154033699999673,3.820625800000016,8.236750799999754,1730.8725602,1747.0265938999996,1731.1273721999992,1746.9942403999999,100.0,320.0,127.0,182.0,412.0,108.0,138.0,263.0,385.0,258.0,2.15,1.15,1.5166666666666666,3.2083333333333335,0.9,1.0583333333333333,2.191666666666667,3.433333333333333,2.6666666666666665,18.275,0.26356589147286824,0.282717738258094,0.4537163702690378,,,72.5,14.5,0.0,0.9310344827586207,0.06896551724137931,87,B,A,C,10.0,5.0,2.0,1.0,3.0,8.0,0.282717738258094,0.26356589147286824,0.4537163702690378,8,5,2,9,6,3,4,7,1,1730.8725602,1734.693186,3.820625800000016,1734.693186,1739.1093109999997,4.416124999999738,1739.1093109999997,1747.0265938999996,7.917282899999918,16.154033699999673,17.0,12.0,5.666666666666667,4.0
26,26.0,1,3,37,3_3,3_6,3_9,3_2,3_5,3_8,3_1,3_4,3_7,1785.1073026,5.183266689999073,23.466224689998853,15.466600089998792,['A3'],['B3'],['C1'],5.0,23.466224689998853,5.183266689999073,15.466600089998792,1785.1073026,1808.5735272899988,1785.3609703999996,1808.5444279999997,98.92202659001079,328.0,422.0,151.0,193.0,309.0,176.0,251.0,813.0,536.0,1.2583333333333333,1.4666666666666666,4.466666666666667,3.5166666666666666,2.575,6.775,2.7333333333333334,1.6083333333333334,2.091666666666667,26.491666666666667,0.2714690154136521,0.4856873230575653,0.24284366152878264,,,0.0,117.99999999999999,0.0,0.9491525423728814,0.05084745762711865,118,A,C,B,10.0,2.0,9.0,2.0,9.0,5.0,0.2714690154136521,0.24284366152878264,0.4856873230575653,9,3,6,1,4,7,8,2,5,1785.1073026,1790.290569289999,5.183266689999073,1790.290569289999,1800.5739026899987,10.28333339999972,1800.5739026899987,1808.5735272899988,7.999624600000061,23.466224689998853,21.0,16.0,7.0,5.333333333333333
27,27.0,1,3,24,3_2,3_8,3_5,3_1,3_7,3_4,3_3,3_9,3_6,1856.7543943,16.818027719999918,12.551364919999289,5.434879120000005,['A3'],['B2'],['C1'],8.0,16.818027719999918,5.434879120000005,12.551364919999289,1856.7543943,1873.57242202,1857.0112975999996,1873.5448519999995,99.54659949622166,374.0,191.0,139.0,234.0,177.0,249.0,403.0,278.0,300.0,1.5916666666666666,2.316666666666667,1.475,3.1166666666666667,3.3583333333333334,1.95,1.1583333333333334,2.5,2.075,19.541666666666664,0.27547974413646054,0.4311300639658849,0.29339019189765464,,,22.0,33.0,22.0,0.9090909090909091,0.09090909090909091,77,C,B,A,8.0,2.0,10.0,7.0,4.0,0.0,0.29339019189765464,0.4311300639658849,0.27547974413646054,3,9,6,7,1,4,5,2,8,1856.7543943,1862.18927342,5.434879120000005,1862.18927342,1869.3057592199993,7.116485799999282,1869.3057592199993,1873.57242202,4.266662800000631,16.818027719999918,20.0,11.0,6.666666666666667,3.6666666666666665
28,28.0,1,3,22,3_1,3_7,3_4,3_2,3_8,3_5,3_3,3_9,3_6,1910.4848905000003,3.855227930000183,11.62163253000017,7.955546129999675,['A3'],['B1'],['C2'],8.0,11.62163253000017,3.855227930000183,7.955546129999675,1910.4848905000003,1922.1065230300005,1910.7366030000007,1922.0783984000004,99.33920704845815,169.0,307.0,64.0,153.0,133.0,64.0,153.0,260.0,226.0,1.4083333333333334,1.275,1.275,2.558333333333333,2.1666666666666665,1.1083333333333334,0.5333333333333333,1.8833333333333333,0.5333333333333333,12.741666666666665,0.31066056245912366,0.4578155657292348,0.2315238718116416,,,31.0,31.0,0.0,0.9354838709677419,0.06451612903225806,62,A,C,B,5.0,9.0,2.0,-0.0,1.0,6.0,0.31066056245912366,0.2315238718116416,0.4578155657292348,4,1,7,9,3,6,2,8,5,1910.4848905000003,1914.3401184300005,3.855227930000183,1914.3401184300005,1918.44043663,4.100318199999492,1918.44043663,1922.1065230300005,3.666086400000495,11.62163253000017,16.0,7.0,5.333333333333333,2.3333333333333335
29,29.0,1,3,40,3_7,3_4,3_1,3_8,3_5,3_2,3_9,3_6,3_3,1959.4119695000004,10.402768860000831,6.019085960000666,16.6859135600007,['A2'],['B1'],['C2'],6.0,16.6859135600007,6.019085960000666,10.402768860000831,1959.4119695000004,1976.097883060001,1959.6618108000007,1976.0703205999994,98.98477157360406,142.0,105.0,265.0,178.0,119.0,320.0,198.0,590.0,506.0,1.65,1.4833333333333334,1.1833333333333333,4.916666666666667,0.9916666666666667,0.875,4.216666666666667,2.6666666666666665,2.2083333333333335,20.191666666666666,0.21378456458935202,0.33594717292612464,0.45026826248452334,,,9.11111111111111,27.333333333333332,45.55555555555556,0.8902439024390244,0.10975609756097561,82,B,A,C,10.0,10.0,4.0,-0.0,3.0,9.0,0.33594717292612464,0.21378456458935202,0.45026826248452334,8,5,2,4,7,1,6,9,3,1959.4119695000004,1965.431055460001,6.019085960000666,1965.431055460001,1969.8147383600012,4.383682900000167,1969.8147383600012,1976.097883060001,6.283144699999866,16.6859135600007,24.0,12.0,8.0,4.0
30,30.0,1,3,3,3_7,3_4,3_1,3_9,3_6,3_3,3_8,3_5,3_2,2024.1948386,11.14249966999978,4.126578569999765,7.559797469999467,['A1'],['B3'],['C1'],8.0,11.14249966999978,4.126578569999765,7.559797469999467,2024.1948386,2035.3373382699997,2024.428804999999,2035.287167,99.5398773006135,97.0,52.0,229.0,90.0,134.0,113.0,252.0,309.0,170.0,2.1,0.75,0.8083333333333333,1.4166666666666667,0.9416666666666667,1.9083333333333334,2.575,1.1166666666666667,0.43333333333333335,12.05,0.3035961272475795,0.3540802213001383,0.34232365145228216,,,0.0,35.0,14.0,0.8571428571428571,0.14285714285714285,49,B,C,A,4.0,2.0,10.0,7.0,4.0,-0.0,0.3540802213001383,0.34232365145228216,0.3035961272475795,3,9,6,8,5,2,7,4,1,2024.1948386,2028.3214171699997,4.126578569999765,2028.3214171699997,2031.7546360699994,3.4332188999997015,2031.7546360699994,2035.3373382699997,3.5827022000003126,11.14249966999978,16.0,11.0,5.333333333333333,3.6666666666666665
31,31.0,1,3,26,3_9,3_3,3_6,3_8,3_2,3_5,3_7,3_1,3_4,2075.6399322,4.387489359999563,17.12023945999954,12.870587059999709,['A2'],['B1'],['C1'],3.0,17.12023945999954,4.387489359999563,12.870587059999709,2075.6399322,2092.7601716599997,2075.8957699,2092.7374969999996,98.76360039564787,280.0,349.0,250.0,116.0,182.0,180.0,216.0,406.0,163.0,1.3583333333333334,2.0833333333333335,1.5,3.3833333333333333,2.908333333333333,1.5166666666666666,1.8,2.3333333333333335,0.9666666666666667,17.85,0.276844070961718,0.4374416433239962,0.2857142857142857,,,7.0,77.0,7.0,0.8571428571428571,0.14285714285714285,91,A,C,B,8.0,0.0,5.0,6.0,1.0,8.0,0.276844070961718,0.2857142857142857,0.4374416433239962,3,9,6,7,1,4,8,2,5,2075.6399322,2080.0274215599998,4.387489359999563,2080.0274215599998,2088.51051926,8.483097700000144,2088.51051926,2092.7601716599997,4.249652399999832,17.12023945999954,13.0,15.0,4.333333333333333,5.0
32,32.0,1,3,32,3_3,3_6,3_9,3_2,3_5,3_8,3_1,3_4,3_7,2133.3174321,5.086715370001002,8.070128670000486,12.90326567000102,['A3'],['B1'],['C1'],9.0,12.90326567000102,5.086715370001002,8.070128670000486,2133.3174321,2146.220697770001,2133.5542463000006,2146.1711178,100.0,269.0,192.0,134.0,187.0,72.0,176.0,96.0,365.0,266.0,1.1166666666666667,1.4666666666666666,2.216666666666667,1.6,0.6,3.0416666666666665,2.2416666666666667,1.5583333333333333,0.8,14.641666666666667,0.327831531018782,0.3579965850882186,0.3141718838929994,,,8.0,32.0,8.0,0.875,0.125,48,A,B,C,3.0,5.0,1.0,6.0,2.0,7.0,0.327831531018782,0.3579965850882186,0.3141718838929994,9,3,6,2,5,8,1,4,7,2133.3174321,2138.404147470001,5.086715370001002,2138.404147470001,2141.3875607700006,2.9834132999994836,2141.3875607700006,2146.220697770001,4.833137000000534,12.90326567000102,9.0,15.0,3.0,5.0
33,33.0,1,3,8,3_3,3_9,3_6,3_2,3_8,3_5,3_1,3_7,3_4,2187.3014112,4.345159899999089,14.095226499998716,7.412374199999249,['A3'],['B2'],['C3'],8.0,14.095226499998716,4.345159899999089,7.412374199999249,2187.3014112,2201.396637699999,2187.537890599999,2201.3546795999996,100.0,125.0,260.0,157.0,127.0,270.0,228.0,276.0,403.0,123.0,1.3083333333333333,1.025,1.9,2.1666666666666665,3.3583333333333334,2.25,1.0416666666666667,2.3,1.0583333333333333,16.40833333333333,0.25799898425596746,0.473844591163027,0.26815642458100564,,,8.375,33.5,25.125,0.8805970149253731,0.11940298507462686,67,A,C,B,9.0,5.0,4.0,0.0,2.0,7.0,0.25799898425596746,0.26815642458100564,0.473844591163027,6,3,9,4,1,7,8,2,5,2187.3014112,2191.646571099999,4.345159899999089,2191.646571099999,2194.7137853999993,3.0672143000001597,2194.7137853999993,2201.396637699999,6.6828522999994675,14.095226499998716,18.0,9.0,6.0,3.0
34,34.0,1,3,35,3_4,3_1,3_7,3_5,3_2,3_8,3_6,3_3,3_9,2237.2405524,8.782268750001094,16.947096050000255,5.064237950000461,['A3'],['B2'],['C3'],6.0,16.947096050000255,5.064237950000461,8.782268750001094,2237.2405524,2254.1876484500003,2237.496375,2254.146458499999,100.0,105.0,374.0,103.0,86.0,176.0,87.0,250.0,635.0,327.0,0.7166666666666667,0.875,2.0833333333333335,1.4666666666666666,3.1166666666666667,5.291666666666667,0.725,0.8583333333333333,2.725,17.858333333333334,0.20578628091460568,0.5529631357909472,0.24125058329444704,,,0.0,65.0,0.0,0.8923076923076924,0.1076923076923077,65,C,A,B,5.0,9.0,7.0,6.0,3.0,9.0,0.24125058329444704,0.20578628091460568,0.5529631357909472,9,6,3,7,4,1,2,5,8,2237.2405524,2242.3047903500005,5.064237950000461,2242.3047903500005,2246.022821150001,3.7180308000006335,2246.022821150001,2254.1876484500003,8.16482729999916,16.947096050000255,21.0,18.0,7.0,6.0
35,35.0,1,3,16,3_1,3_7,3_4,3_3,3_9,3_6,3_2,3_8,3_5,2289.8073764,9.639966750000896,4.656486350000705,13.523282050000487,['A1'],['B3'],['C3'],6.0,13.523282050000487,4.656486350000705,9.639966750000896,2289.8073764,2303.3306584500006,2290.0466847000002,2303.2799870999993,100.0,210.0,28.0,147.0,174.0,128.0,321.0,268.0,331.0,156.0,1.75,2.2333333333333334,1.45,1.225,1.3,2.675,0.23333333333333334,2.7583333333333333,1.0666666666666667,14.691666666666666,0.3698241633579127,0.35394214407260355,0.2762336925694839,,,32.0,16.0,16.0,0.9375,0.0625,64,B,A,C,10.0,10.0,3.0,4.0,9.0,6.0,0.35394214407260355,0.3698241633579127,0.2762336925694839,6,3,9,1,7,4,5,2,8,2289.8073764,2294.4638627500008,4.656486350000705,2294.4638627500008,2299.447343150001,4.9834804000001895,2299.447343150001,2303.3306584500006,3.8833152999995946,13.523282050000489,23.0,19.0,7.666666666666667,6.333333333333333
36,36.0,1,3,19,3_3,3_9,3_6,3_1,3_7,3_4,3_2,3_8,3_5,2343.978071,3.2142228199991223,10.614345519999006,7.514689119999275,['A1'],['B2'],['C3'],10.0,10.614345519999006,3.2142228199991223,7.514689119999275,2343.978071,2354.592416519999,2344.2136146999997,2354.546858,99.11361804995971,66.0,194.0,171.0,48.0,215.0,145.0,123.0,301.0,141.0,1.425,1.175,1.2083333333333333,0.55,1.025,0.4,1.6166666666666667,2.5083333333333333,1.7916666666666667,11.7,0.3254985754985755,0.16880341880341881,0.5056980056980057,,,7.5,22.5,15.0,0.8666666666666667,0.13333333333333333,45,A,C,B,10.0,7.0,10.0,3.0,6.0,0.0,0.3254985754985755,0.5056980056980057,0.16880341880341881,3,9,6,5,2,8,7,1,4,2343.978071,2347.192293819999,3.2142228199991223,2347.192293819999,2351.4927601199993,4.300466300000153,2351.4927601199993,2354.592416519999,3.0996563999997306,10.614345519999006,27.0,9.0,9.0,3.0
37,37.0,1,3,9,3_7,3_1,3_4,3_8,3_2,3_5,3_9,3_3,3_6,2393.1691121,9.332380509999894,5.13423561000036,13.616273810000166,['A1'],['B2'],['C1'],8.0,13.616273810000166,5.13423561000036,9.332380509999894,2393.1691121,2406.78538591,2393.4055324999995,2406.730532,100.0,146.0,375.0,117.0,107.0,61.0,251.0,148.0,487.0,254.0,1.2333333333333334,1.2166666666666666,0.8916666666666667,4.058333333333334,3.125,0.5083333333333333,2.1166666666666667,0.975,2.091666666666667,16.21666666666667,0.20606372045220964,0.47430626927029795,0.31963001027749227,,,0.0,46.4,11.6,0.9137931034482759,0.08620689655172414,58,B,A,C,5.0,9.0,6.0,2.0,0.0,7.0,0.47430626927029795,0.20606372045220964,0.31963001027749227,2,8,5,7,1,4,9,3,6,2393.1691121,2398.3033477100003,5.13423561000036,2398.3033477100003,2402.50149261,4.198144899999534,2402.50149261,2406.78538591,4.283893300000273,13.616273810000166,20.0,9.0,6.666666666666667,3.0
38,38.0,1,3,6,3_8,3_2,3_5,3_7,3_1,3_4,3_9,3_3,3_6,2451.771071,8.5361278700002,14.769509669999934,17.719509770000514,['A2'],['B1'],['C1'],6.0,17.719509770000514,8.5361278700002,14.769509669999934,2451.771071,2469.4905807700006,2452.0057422999994,2469.4475438000004,98.99713467048711,232.0,700.0,78.0,165.0,78.0,125.0,385.0,290.0,139.0,2.4166666666666665,5.833333333333333,0.65,3.2083333333333335,1.9333333333333333,1.375,1.1583333333333334,0.65,1.0416666666666667,18.26666666666667,0.4872262773722627,0.3567518248175182,0.156021897810219,,,14.2,42.6,14.2,0.9295774647887324,0.07042253521126761,71,A,B,C,10.0,5.0,10.0,6.0,8.0,0.0,0.4872262773722627,0.3567518248175182,0.156021897810219,2,8,5,7,1,4,9,3,6,2451.771071,2460.3071988700003,8.5361278700002,2460.3071988700003,2466.54058067,6.233381799999734,2466.54058067,2469.4905807700006,2.9500001000005796,17.719509770000514,25.0,14.0,8.333333333333334,4.666666666666667
39,39.0,1,3,21,3_8,3_5,3_2,3_9,3_6,3_3,3_7,3_4,3_1,2515.2989085000004,15.009424500000932,3.892984500001148,9.759838200001468,['A2'],['B2'],['C1'],10.0,15.009424500000932,3.892984500001148,9.759838200001468,2515.2989085000004,2530.3083330000013,2515.5560747000004,2530.2728225999995,99.94340690435767,90.0,310.0,8.0,170.0,245.0,190.0,381.0,416.0,181.0,3.466666666666667,2.0416666666666665,2.5833333333333335,1.5083333333333333,1.5833333333333333,0.06666666666666667,3.175,1.4166666666666667,0.75,16.59166666666667,0.48769462581617273,0.1903566047212456,0.3219487694625816,,,19.5,39.0,19.5,0.9487179487179487,0.05128205128205128,78,B,C,A,2.0,10.0,6.0,0.0,4.0,7.0,0.1903566047212456,0.3219487694625816,0.48769462581617273,6,9,3,7,4,1,5,8,2,2515.2989085000004,2519.1918930000015,3.8929845000011483,2519.1918930000015,2525.058746700002,5.86685370000032,2525.058746700002,2530.3083330000013,5.249586299999464,15.009424500000932,18.0,11.0,6.0,3.6666666666666665
40,40.0,1,3,5,3_5,3_2,3_8,3_6,3_3,3_9,3_4,3_1,3_7,2569.5261048,4.228036479999901,15.061463979999644,9.561914279999655,['A1'],['B3'],['C3'],10.0,15.061463979999644,4.228036479999901,9.561914279999655,2569.5261048,2584.58756878,2569.7563757000003,2584.5396154999994,99.54929577464789,172.0,173.0,111.0,78.0,202.0,170.0,305.0,559.0,448.0,1.6833333333333333,1.4416666666666667,4.658333333333333,1.4166666666666667,0.925,3.7333333333333334,0.65,1.4333333333333333,2.5416666666666665,18.483333333333334,0.4211000901713255,0.32867448151487827,0.2502254283137962,,,29.0,58.0,0.0,0.9655172413793104,0.034482758620689655,87,A,C,B,7.0,8.0,3.0,2.0,5.0,1.0,0.4211000901713255,0.2502254283137962,0.32867448151487827,5,2,8,7,4,1,9,6,3,2569.5261048,2573.75414128,4.228036479999901,2573.75414128,2579.08801908,5.333877799999755,2579.08801908,2584.58756878,5.499549699999989,15.061463979999644,18.0,8.0,6.0,2.6666666666666665
41,41.0,1,3,23,3_9,3_3,3_6,3_7,3_1,3_4,3_8,3_2,3_5,2625.3017503,7.418140740001036,12.201812740000603,3.635436840000693,['A1'],['B3'],['C1'],9.0,12.201812740000603,3.635436840000693,7.418140740001036,2625.3017503,2637.5035630400007,2625.5565909,2637.4732697000004,99.93011879804332,196.0,150.0,124.0,136.0,78.0,163.0,310.0,362.0,163.0,1.3583333333333334,1.0333333333333334,1.3583333333333334,2.5833333333333335,1.6333333333333333,1.1333333333333333,3.0166666666666666,1.25,0.65,14.016666666666666,0.26753864447086806,0.3816884661117717,0.35077288941736035,,,11.6,46.4,0.0,0.9137931034482759,0.08620689655172414,58,C,A,B,10.0,1.0,5.0,0.0,6.0,3.0,0.35077288941736035,0.26753864447086806,0.3816884661117717,8,2,5,9,3,6,4,7,1,2625.3017503,2628.937187140001,3.6354368400006933,2628.937187140001,2632.719891040001,3.7827039000003424,2632.719891040001,2637.5035630400007,4.783671999999569,12.201812740000605,16.0,9.0,5.333333333333333,3.0
42,42.0,1,3,2,3_2,3_8,3_5,3_1,3_7,3_4,3_3,3_9,3_6,2677.3029639,2.7029800699992848,9.069403169999532,6.819768569999724,['A2'],['B2'],['C3'],9.0,9.069403169999532,2.7029800699992848,6.819768569999724,2677.3029639,2686.3723670699997,2677.5400834999996,2686.3235147,100.0,169.0,93.0,109.0,45.0,65.0,150.0,138.0,377.0,276.0,0.775,3.1416666666666666,0.5416666666666666,1.4083333333333334,1.15,0.375,0.9083333333333333,2.3,1.25,11.85,0.3762306610407876,0.2475386779184248,0.3762306610407876,,,20.0,0.0,20.0,0.95,0.05,40,A,C,B,10.0,7.0,5.0,6.0,4.0,0.0,0.3762306610407876,0.3762306610407876,0.2475386779184248,8,2,5,6,3,9,7,1,4,2677.3029639,2680.0059439699994,2.7029800699992848,2680.0059439699994,2684.12273247,4.116788500000439,2684.12273247,2686.3723670699997,2.2496345999998084,9.069403169999532,22.0,10.0,7.333333333333333,3.3333333333333335
43,43.0,1,3,1,3_5,3_8,3_2,3_6,3_9,3_3,3_4,3_7,3_1,2723.9658083,5.770200529999784,2.57059333000052,7.937225829999988,['A2'],['B3'],['C1'],10.0,7.937225829999988,2.57059333000052,5.770200529999784,2723.9658083,2731.90303413,2724.215466100001,2731.8737527999997,99.89130434782608,75.0,58.0,156.0,123.0,117.0,122.0,75.0,272.0,73.0,0.975,2.2666666666666666,0.48333333333333334,1.0166666666666666,0.6083333333333333,1.3,1.025,0.625,0.625,8.925,0.41736694677871145,0.32773109243697474,0.2549019607843137,,,0.0,0.0,40.0,0.925,0.075,40,B,A,C,10.0,7.0,10.0,0.0,4.0,0.0,0.32773109243697474,0.41736694677871145,0.2549019607843137,3,6,9,8,5,2,4,7,1,2723.9658083,2726.5364016300005,2.57059333000052,2726.5364016300005,2729.7360088299997,3.1996071999992637,2729.7360088299997,2731.90303413,2.167025300000205,7.9372258299999885,27.0,4.0,9.0,1.3333333333333333
44,44.0,1,3,17,3_8,3_5,3_2,3_7,3_4,3_1,3_9,3_6,3_3,2761.8425409,3.49185966999994,6.227062269999806,8.392339070000162,['A3'],['B2'],['C2'],10.0,8.392339070000162,3.49185966999994,6.227062269999806,2761.8425409,2770.2348799700003,2762.0988503999993,2770.1989638,100.0,78.0,240.0,107.0,82.0,72.0,176.0,105.0,191.0,76.0,1.5916666666666666,0.6,2.0,0.875,0.6833333333333333,0.65,0.6333333333333333,1.4666666666666666,0.8916666666666667,9.391666666666666,0.44631765749778174,0.23513753327417927,0.318544809228039,,,0.0,30.0,10.0,0.9,0.1,40,A,B,C,8.0,10.0,5.0,0.0,0.0,3.0,0.44631765749778174,0.23513753327417927,0.318544809228039,2,8,5,4,7,1,6,9,3,2761.8425409,2765.33440057,3.49185966999994,2765.33440057,2768.06960317,2.735202599999866,2768.06960317,2770.2348799700003,2.165276800000356,8.392339070000162,23.0,3.0,7.666666666666667,1.0
45,0.0,2,3,21,3_7,3_1,3_4,3_9,3_3,3_6,3_8,3_2,3_5,279.70596300000034,17.666487380001854,14.833552380001493,9.968551380001372,['A2'],['B3'],['C1'],8.0,17.666487380001854,9.968551380001372,14.833552380001493,279.70596300000034,297.3724503800022,334.8336347000004,334.8336347000004,100.0,0.0,0.0,0.0,0.0,0.0,0.0,0.0,0.0,0.0,0.0,0.0,0.0,0.0,0.0,0.0,0.0,0.0,0.0,0.0,,,,,,,,,,,0,C,B,A,10.0,10.0,10.0,10.0,0.0,-0.0,,,,8,2,5,6,9,3,1,7,4,279.70596300000034,289.6745143800017,9.968551380001372,289.6745143800017,294.53951538000183,4.86500100000012,294.53951538000183,297.3724503800022,2.8329350000003615,17.666487380001854,30.0,10.0,10.0,3.3333333333333335
46,1.0,2,3,15,3_1,3_4,3_7,3_2,3_5,3_8,3_3,3_6,3_9,324.2818148999995,14.936774140000123,18.28703654000128,10.670758140000544,['A1'],['B2'],['C3'],10.0,18.28703654000128,10.670758140000544,14.936774140000123,324.2818148999995,342.5688514400008,334.8336347000004,342.56704439999885,94.83315392895587,10.0,104.0,229.0,146.0,232.0,106.0,0.0,0.0,0.0,0.08333333333333333,1.2166666666666666,0.0,0.8666666666666667,1.9333333333333333,0.0,1.9083333333333334,0.8833333333333333,0.0,6.891666666666667,0.18863361547762997,0.4062877871825876,0.4050785973397824,,,,,,1.0,0.0,8,C,A,B,10.0,5.0,10.0,0.0,5.0,0.0,0.4050785973397824,0.18863361547762997,0.4062877871825876,9,3,6,1,4,7,5,2,8,324.2818148999995,334.95257304000006,10.670758140000544,334.95257304000006,339.21858903999964,4.266015999999581,339.21858903999964,342.5688514400008,3.3502624000011565,18.28703654000128,25.0,5.0,8.333333333333334,1.6666666666666667
47,2.0,2,3,16,3_3,3_9,3_6,3_1,3_7,3_4,3_2,3_8,3_5,371.3356578999992,15.34241528000166,7.059340380001231,25.759358880000946,['A2'],['B1'],['C2'],6.0,25.759358880000946,7.059340380001231,15.34241528000166,371.3356578999992,397.09501678000015,371.33379330000025,416.4505538000012,92.85714285714286,22.0,3.0,28.0,0.0,0.0,0.0,0.0,0.0,0.0,0.23333333333333334,0.0,0.0,0.18333333333333332,0.0,0.0,0.025,0.0,0.0,0.44166666666666665,0.5283018867924528,0.4150943396226415,0.05660377358490567,,,,,,1.0,0.0,2,B,A,C,7.0,10.0,-0.0,5.0,6.0,0.0,0.4150943396226415,0.5283018867924528,0.05660377358490567,1,7,4,9,3,6,8,2,5,371.3356578999992,378.39499828000044,7.059340380001231,378.39499828000044,386.67807318000087,8.283074900000429,386.67807318000087,397.09501678000015,10.416943599999286,25.759358880000946,17.0,11.0,5.666666666666667,3.6666666666666665
48,3.0,2,3,18,3_2,3_5,3_8,3_1,3_4,3_7,3_3,3_6,3_9,428.4292896999996,20.56608605999827,24.315088559998912,14.299285359998976,['A3'],['B2'],['C3'],3.0,24.315088559998912,14.299285359998976,20.56608605999827,428.4292896999996,452.7443782599985,428.4257585999985,452.6674759999987,98.04123711340206,576.0,558.0,382.0,199.0,383.0,200.0,578.0,286.0,172.0,4.65,3.191666666666667,2.3833333333333333,4.8,1.6583333333333334,4.816666666666666,3.183333333333333,1.6666666666666667,1.4333333333333333,27.78333333333333,0.3680263947210558,0.40581883623275344,0.22615476904619078,,,13.571428571428573,54.28571428571429,27.142857142857146,0.9263157894736842,0.07368421052631578,95,C,A,B,4.0,10.0,10.0,0.0,10.0,10.0,0.22615476904619078,0.3680263947210558,0.40581883623275344,9,3,6,8,2,5,4,1,7,428.4292896999996,442.72857505999855,14.299285359998976,442.72857505999855,448.99537575999784,6.266800699999294,448.99537575999784,452.7443782599985,3.7490025000006426,24.315088559998912,24.0,20.0,8.0,6.666666666666667
49,4.0,2,3,13,3_2,3_8,3_5,3_3,3_9,3_6,3_1,3_7,3_4,480.6647849000001,8.226245959998778,26.95979645999978,13.476489959999526,['A2'],['B3'],['C1'],7.0,26.95979645999978,8.226245959998778,13.476489959999526,480.6647849000001,507.62458135999987,488.0177399999993,507.6260949999996,96.9838572642311,424.0,351.0,279.0,179.0,159.0,178.0,175.0,203.0,466.0,2.925,1.6916666666666667,1.325,2.325,3.8833333333333333,1.4833333333333334,3.533333333333333,1.4583333333333333,1.4916666666666667,20.116666666666667,0.29536039768019884,0.3823529411764706,0.32228666114333054,,,0.0,0.0,59.0,0.9830508474576272,0.01694915254237288,59,A,C,B,10.0,10.0,5.0,4.0,-0.0,4.0,0.29536039768019884,0.32228666114333054,0.3823529411764706,8,2,5,1,7,4,6,3,9,480.6647849000001,488.89103085999886,8.226245959998778,488.89103085999886,494.1412748599996,5.250244000000748,494.1412748599996,507.62458135999987,13.483306500000253,26.95979645999978,25.0,8.0,8.333333333333334,2.6666666666666665
50,5.0,2,3,44,3_6,3_3,3_9,3_4,3_1,3_7,3_5,3_2,3_8,543.1748031000006,28.034728059998088,7.235613959997863,16.03519075999793,['A3'],['B3'],['C1'],5.0,28.034728059998088,7.235613959997863,16.03519075999793,543.1748031000006,571.2095311599987,543.1762264999998,555.4179657999994,99.18367346938776,117.0,66.0,264.0,1.0,89.0,235.0,139.0,372.0,495.0,1.9583333333333333,2.2,4.125,0.008333333333333333,0.975,1.1583333333333334,0.7416666666666667,0.55,3.1,14.816666666666666,0.5590551181102362,0.14454443194600675,0.296400449943757,,,0.0,16.333333333333332,32.666666666666664,0.9387755102040817,0.061224489795918366,49,B,C,A,10.0,10.0,10.0,0.0,5.0,10.0,0.14454443194600675,0.296400449943757,0.5590551181102362,7,4,1,5,2,8,9,6,3,543.1748031000006,550.4104170599985,7.235613959997863,550.4104170599985,559.2099938599986,8.799576800000068,559.2099938599986,571.2095311599987,11.999537300000156,28.034728059998088,30.0,15.0,10.0,5.0
51,6.0,2,3,43,3_8,3_2,3_5,3_7,3_1,3_4,3_9,3_3,3_6,597.9371453999993,13.17260964000161,4.589878240001781,20.673072840001623,['A1'],['B2'],['C3'],7.0,20.673072840001623,4.589878240001781,13.17260964000161,597.9371453999993,618.6102182400009,601.4764488000001,618.6098827999995,97.90957705396208,257.0,111.0,76.0,238.0,209.0,182.0,364.0,155.0,623.0,1.2916666666666667,0.925,1.7416666666666667,3.033333333333333,2.1416666666666666,1.9833333333333334,5.191666666666666,0.6333333333333333,1.5166666666666666,18.458333333333332,0.21444695259593682,0.38781038374717836,0.3977426636568849,,,54.0,0.0,0.0,0.9074074074074074,0.09259259259259259,54,B,A,C,7.0,10.0,10.0,0.0,0.0,8.0,0.38781038374717836,0.21444695259593682,0.3977426636568849,1,7,4,8,2,5,6,9,3,597.9371453999993,602.5270236400011,4.589878240001781,602.5270236400011,611.1097550400009,8.58273139999983,611.1097550400009,618.6102182400009,7.500463200000013,20.673072840001623,27.0,8.0,9.0,2.6666666666666665
52,7.0,2,3,12,3_2,3_8,3_5,3_1,3_7,3_4,3_3,3_9,3_6,645.6807423999999,28.133696339999005,10.934461540000484,19.901003839999248,['A2'],['B2'],['C3'],0.0,28.133696339999005,10.934461540000484,19.901003839999248,645.6807423999999,673.8144387399989,632.6100273999982,673.8185224000008,98.05068226120858,219.0,51.0,175.0,157.0,69.0,173.0,155.0,369.0,442.0,0.425,3.075,0.575,1.825,1.2916666666666667,1.3083333333333333,1.4583333333333333,3.683333333333333,1.4416666666666667,15.083333333333332,0.2701657458563536,0.29337016574585634,0.43646408839779005,,,27.599999999999998,13.799999999999999,27.599999999999998,0.927536231884058,0.07246376811594203,69,B,C,A,7.0,10.0,5.0,3.0,7.0,10.0,0.29337016574585634,0.43646408839779005,0.2701657458563536,7,1,4,6,3,9,8,2,5,645.6807423999999,656.6152039400004,10.934461540000484,656.6152039400004,665.5817462399991,8.966542299998764,665.5817462399991,673.8144387399989,8.232692499999757,28.133696339999005,22.0,20.0,7.333333333333333,6.666666666666667
53,8.0,2,3,17,3_4,3_7,3_1,3_5,3_8,3_2,3_6,3_9,3_3,702.7681229999998,9.989856419997524,2.2903208199986693,18.006958919997487,['A3'],['B2'],['C1'],7.0,18.006958919997487,2.2903208199986693,9.989856419997524,702.7681229999998,720.7750819199973,709.7183894000009,720.7769645000008,97.28915662650603,97.0,388.0,88.0,0.0,189.0,4.0,52.0,208.0,181.0,0.0,0.43333333333333335,0.8083333333333333,1.575,1.7333333333333334,3.2333333333333334,0.03333333333333333,1.5083333333333333,0.7333333333333333,10.058333333333334,0.12344656172328086,0.6503728251864126,0.22618061309030654,,,0.0,57.0,0.0,0.8947368421052632,0.10526315789473684,57,B,A,C,0.0,10.0,10.0,0.0,10.0,10.0,0.6503728251864126,0.12344656172328086,0.22618061309030654,8,5,2,1,4,7,6,9,3,702.7681229999998,705.0584438199985,2.2903208199986693,705.0584438199985,712.7579794199974,7.699535599998853,712.7579794199974,720.7750819199973,8.017102499999964,18.006958919997487,20.0,20.0,6.666666666666667,6.666666666666667
54,9.0,2,3,35,3_7,3_4,3_1,3_8,3_5,3_2,3_9,3_6,3_3,746.1628067000001,18.067372339999565,27.41789943999902,4.418187639999815,['A2'],['B3'],['C1'],4.0,27.41789943999902,4.418187639999815,18.067372339999565,746.1628067000001,773.5807061399992,739.3438236000002,773.5771952999967,96.95057833859096,106.0,2.0,0.0,427.0,75.0,0.0,145.0,248.0,69.0,1.2083333333333333,3.558333333333333,0.8833333333333333,2.066666666666667,0.625,0.016666666666666666,0.575,0.0,0.0,8.933333333333334,0.6324626865671642,0.3031716417910448,0.06436567164179104,,,,,,1.0,0.0,14,C,A,B,3.0,10.0,10.0,-0.0,10.0,10.0,0.06436567164179104,0.6324626865671642,0.3031716417910448,9,6,3,4,7,1,2,8,5,746.1628067000001,750.58099434,4.418187639999815,750.58099434,764.2301790399997,13.64918469999975,764.2301790399997,773.5807061399992,9.350527099999454,27.41789943999902,23.0,20.0,7.666666666666667,6.666666666666667
55,10.0,2,3,3,3_3,3_9,3_6,3_2,3_8,3_5,3_1,3_7,3_4,799.8546313000006,9.338919960002386,3.539636860001337,11.85625366000204,['A2'],['B3'],['C2'],10.0,11.85625366000204,3.539636860001337,9.338919960002386,799.8546313000006,811.7108849600027,799.8523375999976,811.7107856000002,97.68258426966293,178.0,57.0,179.0,434.0,41.0,265.0,215.0,212.0,127.0,1.4916666666666667,1.0583333333333333,2.2083333333333335,0.475,1.7666666666666666,0.3416666666666667,1.4833333333333334,1.7916666666666667,3.6166666666666667,14.233333333333334,0.3343091334894613,0.18149882903981265,0.48419203747072603,,,11.6,11.6,5.8,0.8275862068965517,0.1724137931034483,29,B,A,C,10.0,8.0,6.0,-0.0,0.0,0.0,0.18149882903981265,0.3343091334894613,0.48419203747072603,5,2,8,9,3,6,7,1,4,799.8546313000006,803.394268160002,3.5396368600013375,803.394268160002,809.193551260003,5.799283100001048,809.193551260003,811.7108849600027,2.5173336999996536,11.85625366000204,24.0,0.0,8.0,0.0
56,11.0,2,3,38,3_6,3_3,3_9,3_4,3_1,3_7,3_5,3_2,3_8,841.7757865000003,6.687881119998565,8.587724719998732,2.871143819998906,['A1'],['B3'],['C1'],8.0,8.587724719998732,2.871143819998906,6.687881119998565,841.7757865000003,850.363511219999,856.6442768999987,856.6442768999987,100.0,0.0,0.0,0.0,0.0,0.0,0.0,0.0,1.0,0.0,0.0,0.0,0.0,0.0,0.0,0.0,0.0,0.0,0.008333333333333333,0.008333333333333333,0.0,0.0,1.0,,,,,,,,0,C,A,B,10.0,10.0,10.0,-0.0,0.0,0.0,1.0,0.0,0.0,5,2,8,6,3,9,7,4,1,841.7757865000003,844.6469303199992,2.871143819998906,844.6469303199992,848.4636676199989,3.8167372999996587,848.4636676199989,850.363511219999,1.8998436000001675,8.587724719998732,30.0,0.0,10.0,0.0
57,12.0,2,3,19,3_2,3_8,3_5,3_3,3_9,3_6,3_1,3_7,3_4,876.7794410999995,7.006890400001794,10.743228800001816,4.324257200001739,['A1'],['B2'],['C2'],10.0,10.743228800001816,4.324257200001739,7.006890400001794,876.7794410999995,887.5226699000013,876.7776849000002,887.5194821000005,96.51162790697676,36.0,111.0,126.0,1.0,157.0,129.0,51.0,366.0,253.0,0.925,3.05,1.3083333333333333,1.05,2.1083333333333334,1.075,0.3,0.425,0.008333333333333333,10.249999999999998,0.5154471544715448,0.4130081300813009,0.07154471544715447,,,0.0,27.0,0.0,0.9259259259259259,0.07407407407407407,27,C,A,B,10.0,10.0,7.0,0.0,-0.0,-0.0,0.07154471544715447,0.5154471544715448,0.4130081300813009,7,1,4,2,8,5,9,3,6,876.7794410999995,881.1036983000013,4.324257200001739,881.1036983000013,883.7863315000013,2.682633200000055,883.7863315000013,887.5226699000013,3.7363384000000224,10.743228800001816,27.0,0.0,9.0,0.0
58,13.0,2,3,41,3_8,3_5,3_2,3_7,3_4,3_1,3_9,3_6,3_3,914.1822467000002,8.853856080000696,5.871003280000878,12.971009880000564,['A2'],['B1'],['C1'],10.0,12.971009880000564,5.871003280000878,8.853856080000696,914.1822467000002,927.1532565800007,925.4362445999977,927.1529783000005,92.7536231884058,53.0,56.0,0.0,0.0,3.0,3.0,28.0,42.0,0.0,0.35,0.025,0.4666666666666667,0.23333333333333334,0.0,0.44166666666666665,0.0,0.025,0.0,1.5416666666666665,0.545945945945946,0.4378378378378379,0.016216216216216217,,,0.0,4.0,0.0,0.75,0.25,4,B,A,C,10.0,10.0,3.0,3.0,0.0,3.0,0.4378378378378379,0.545945945945946,0.016216216216216217,7,4,1,5,8,2,9,6,3,914.1822467000002,920.053249980001,5.871003280000878,920.053249980001,923.0361027800009,2.9828527999998187,923.0361027800009,927.1532565800007,4.117153799999869,12.971009880000565,23.0,6.0,7.666666666666667,2.0
59,14.0,2,3,25,3_6,3_3,3_9,3_5,3_2,3_8,3_4,3_1,3_7,958.7352850999996,13.456813140001032,18.256684940000923,15.957158940000228,['A1'],['B1'],['C2'],5.0,18.256684940000923,13.456813140001032,15.957158940000228,958.7352850999996,976.9919700400005,942.8196113999984,978.6197685999978,100.0,0.0,0.0,0.0,0.0,0.0,1.0,0.0,0.0,0.0,0.008333333333333333,0.0,0.0,0.0,0.0,0.0,0.0,0.0,0.0,0.008333333333333333,1.0,0.0,0.0,,,,,,,,0,A,C,B,10.0,10.0,10.0,0.0,-0.0,5.0,1.0,0.0,0.0,6,3,9,1,4,7,5,2,8,958.7352850999996,972.1920982400006,13.456813140001032,972.1920982400006,974.6924440399998,2.500345799999195,974.6924440399998,976.9919700400005,2.2995260000006965,18.256684940000923,30.0,5.0,10.0,1.6666666666666667
60,15.0,2,3,26,3_4,3_7,3_1,3_6,3_9,3_3,3_5,3_8,3_2,1016.7530521999996,21.120394659999874,13.671200560000216,26.704092259999012,['A2'],['B3'],['C1'],10.0,26.704092259999012,13.671200560000216,21.120394659999874,1016.7530521999996,1043.4571444599985,1002.1365855999975,1043.4534649000016,97.93478260869564,250.0,57.0,25.0,75.0,62.0,28.0,280.0,92.0,107.0,0.625,2.3333333333333335,2.0833333333333335,0.23333333333333334,0.8916666666666667,0.20833333333333334,0.5166666666666667,0.7666666666666667,0.475,8.133333333333333,0.6198770491803279,0.16393442622950818,0.21618852459016394,,,14.5,14.5,0.0,0.9310344827586207,0.06896551724137931,29,B,A,C,10.0,10.0,10.0,-0.0,5.0,-0.0,0.16393442622950818,0.6198770491803279,0.21618852459016394,3,6,9,7,4,1,5,8,2,1016.7530521999996,1030.42425276,13.67120056000033,1030.42425276,1037.8734468599996,7.449194099999659,1037.8734468599996,1043.4571444599985,5.583697599998914,26.7040922599989,30.0,5.0,10.0,1.6666666666666667
61,16.0,2,3,23,3_5,3_2,3_8,3_4,3_1,3_7,3_6,3_3,3_9,1068.9023796,7.217590519998339,12.901350019999882,17.101077519999308,['A2'],['B3'],['C2'],7.0,17.101077519999308,7.217590519998339,12.901350019999882,1068.9023796,1086.0034571199992,1067.8201750999979,1101.0620651999998,50.0,0.0,0.0,0.0,0.0,0.0,0.0,0.0,0.0,1.0,0.0,0.0,0.0,0.0,0.0,0.0,0.0,0.0,0.008333333333333333,0.008333333333333333,0.0,0.0,1.0,,,,,,,,0,A,B,C,10.0,10.0,10.0,-0.0,10.0,-0.0,0.0,0.0,1.0,2,5,8,7,4,1,3,6,9,1068.9023796,1076.1199701199982,7.217590519998339,1076.1199701199982,1081.8037296199998,5.683759500001543,1081.8037296199998,1086.0034571199992,4.199727499999426,17.101077519999308,30.0,10.0,10.0,3.3333333333333335
62,17.0,2,3,0,3_3,3_9,3_6,3_2,3_8,3_5,3_1,3_7,3_4,1113.0370296,5.257871380003053,10.2581099800027,16.625130080003146,['A1'],['B1'],['C3'],2.0,16.625130080003146,5.257871380003053,10.2581099800027,1113.0370296,1129.6621596800032,1113.0371618999998,1129.662161700002,86.52304609218436,278.0,275.0,97.0,107.0,101.0,32.0,274.0,545.0,468.0,0.8083333333333333,3.9,0.26666666666666666,2.2916666666666665,4.541666666666667,0.8416666666666667,2.316666666666667,2.283333333333333,0.8916666666666667,18.141666666666666,0.27423059255856685,0.4230592558566836,0.3027101515847497,,,38.0,38.0,0.0,0.9473684210526315,0.05263157894736842,76,A,B,C,10.0,6.0,10.0,10.0,-0.0,10.0,0.27423059255856685,0.4230592558566836,0.3027101515847497,3,9,6,2,8,5,4,1,7,1113.0370296,1118.2949009800031,5.257871380003053,1118.2949009800031,1123.2951395800028,5.000238599999648,1123.2951395800028,1129.6621596800032,6.367020100000445,16.625130080003146,26.0,20.0,8.666666666666666,6.666666666666667
63,18.0,2,3,27,3_9,3_6,3_3,3_7,3_4,3_1,3_8,3_5,3_2,1157.7707248000006,14.193413259999945,6.193734559999939,18.16009716000008,['A3'],['B3'],['C3'],7.0,18.16009716000008,6.193734559999939,14.193413259999945,1157.7707248000006,1175.9308219600007,1158.9123225999974,1175.9289887999985,98.04209495839451,310.0,74.0,153.0,230.0,119.0,156.0,172.0,527.0,635.0,5.291666666666667,1.3,1.275,1.4333333333333333,1.9166666666666667,2.5833333333333335,4.391666666666667,0.9916666666666667,0.6166666666666667,19.8,0.39730639730639733,0.2996632996632997,0.30303030303030304,,,12.666666666666668,12.666666666666668,12.666666666666668,0.8421052631578947,0.15789473684210525,38,B,A,C,10.0,10.0,10.0,6.0,4.0,10.0,0.2996632996632997,0.39730639730639733,0.30303030303030304,1,7,4,3,9,6,2,8,5,1157.7707248000006,1163.9644593600005,6.193734559999939,1163.9644593600005,1171.9641380600006,7.999678700000004,1171.9641380600006,1175.9308219600007,3.9666839000001346,18.160097160000078,30.0,20.0,10.0,6.666666666666667
64,19.0,2,3,37,3_7,3_4,3_1,3_9,3_6,3_3,3_8,3_5,3_2,1206.0647984999996,6.118044259997987,15.917987359996914,8.401889159997154,['A2'],['B1'],['C2'],1.0,15.917987359996914,6.118044259997987,8.401889159997154,1206.0647984999996,1221.9827858599965,1209.1458509999975,1221.9791688999976,95.91174561972745,357.0,333.0,108.0,138.0,172.0,127.0,87.0,306.0,166.0,0.725,1.15,2.975,1.3833333333333333,1.0583333333333333,0.9,2.55,1.4333333333333333,2.775,14.95,0.32441471571906355,0.22352285395763655,0.4520624303232999,,,16.0,32.0,0.0,0.9375,0.0625,48,A,C,B,10.0,10.0,0.0,0.0,5.0,10.0,0.32441471571906355,0.4520624303232999,0.22352285395763655,4,7,1,5,8,2,9,6,3,1206.0647984999996,1212.1828427599976,6.118044259997987,1212.1828427599976,1214.4666876599968,2.283844899999167,1214.4666876599968,1221.9827858599965,7.51609819999976,15.917987359996914,20.0,15.0,6.666666666666667,5.0
65,20.0,2,3,8,3_8,3_5,3_2,3_7,3_4,3_1,3_9,3_6,3_3,1257.3385364999997,25.59364428000117,32.09373118000076,39.027422980001575,['A1'],['B3'],['C3'],-0.0,39.027422980001575,25.59364428000117,32.09373118000076,1257.3385364999997,1296.3659594800013,1258.9626549000022,1282.929447399998,96.4546402502607,424.0,295.0,408.0,386.0,420.0,348.0,421.0,275.0,296.0,2.2916666666666665,3.5,2.4583333333333335,3.5083333333333333,3.216666666666667,3.533333333333333,2.466666666666667,2.9,3.4,27.275,0.30247479376718606,0.37610754659333945,0.32141765963947455,,,0.0,86.0,0.0,0.9302325581395349,0.06976744186046512,86,A,B,C,10.0,10.0,10.0,10.0,10.0,10.0,0.30247479376718606,0.37610754659333945,0.32141765963947455,8,5,2,1,7,4,3,9,6,1257.3385364999997,1282.9321807800009,25.593644280001172,1282.9321807800009,1289.4322676800005,6.500086899999587,1289.4322676800005,1296.3659594800013,6.933691800000815,39.027422980001575,30.0,30.0,10.0,10.0
66,21.0,2,3,29,3_7,3_4,3_1,3_9,3_6,3_3,3_8,3_5,3_2,1321.3006960999992,16.891274460000204,7.758316359999299,13.825285760000044,['A3'],['B1'],['C1'],7.0,16.891274460000204,7.758316359999299,13.825285760000044,1321.3006960999992,1338.1919705599994,1321.304698699998,1333.6797451999992,98.25033647375506,170.0,304.0,174.0,268.0,127.0,225.0,145.0,150.0,96.0,1.2083333333333333,2.2333333333333334,1.4166666666666667,0.8,1.875,1.45,1.25,1.0583333333333333,2.533333333333333,13.825000000000001,0.35141651597347795,0.298372513562387,0.350210970464135,,,0.0,49.33333333333333,24.666666666666664,0.9594594594594594,0.04054054054054054,74,B,C,A,3.0,10.0,10.0,0.0,2.0,7.0,0.298372513562387,0.350210970464135,0.35141651597347795,9,6,3,8,5,2,1,7,4,1321.3006960999992,1329.0590124599985,7.758316359999299,1329.0590124599985,1335.1259818599992,6.066969400000744,1335.1259818599992,1338.1919705599994,3.0659887000001618,16.891274460000204,23.0,9.0,7.666666666666667,3.0
67,22.0,2,3,39,3_1,3_7,3_4,3_2,3_8,3_5,3_3,3_9,3_6,1365.9513275999998,21.95582542000011,7.256591819999812,17.789788520000002,['A2'],['B1'],['C3'],2.0,21.95582542000011,7.256591819999812,17.789788520000002,1365.9513275999998,1387.90715302,1368.863237900001,1387.9049675999995,89.63254593175853,344.0,180.0,151.0,0.0,267.0,120.0,177.0,512.0,406.0,2.8666666666666667,1.475,0.0,1.5,4.266666666666667,2.225,1.2583333333333333,3.3833333333333333,1.0,17.975,0.24153917477978673,0.44459898006490495,0.3138618451553083,,,0.0,40.5,13.5,0.8518518518518519,0.14814814814814814,54,B,C,A,10.0,0.0,10.0,0.0,8.0,4.0,0.44459898006490495,0.3138618451553083,0.24153917477978673,2,8,5,6,3,9,7,1,4,1365.9513275999998,1373.2079194199996,7.256591819999812,1373.2079194199996,1383.7411161199998,10.53319670000019,1383.7411161199998,1387.90715302,4.166036900000108,21.95582542000011,20.0,12.0,6.666666666666667,4.0
68,23.0,2,3,11,3_6,3_3,3_9,3_5,3_2,3_8,3_4,3_1,3_7,1413.6154203999995,4.008035139999265,4.358351040000343,10.142100540000683,['A2'],['B2'],['C3'],8.0,10.142100540000683,4.008035139999265,4.358351040000343,1413.6154203999995,1423.7575209400002,1400.988445699997,1431.2385549999963,100.0,0.0,0.0,0.0,0.0,0.0,0.0,0.0,1.0,1.0,0.0,0.0,0.008333333333333333,0.0,0.0,0.008333333333333333,0.0,0.0,0.0,0.016666666666666666,0.5,0.5,0.0,,,,,,,,0,A,B,C,10.0,10.0,6.0,-0.0,0.0,0.0,0.5,0.5,0.0,3,6,9,2,5,8,7,4,1,1413.6154203999995,1417.6234555399988,4.008035139999265,1417.6234555399988,1417.9737714399998,0.35031590000107826,1417.9737714399998,1423.7575209400002,5.78374950000034,10.142100540000683,26.0,0.0,8.666666666666666,0.0
69,24.0,2,3,4,3_7,3_1,3_4,3_9,3_3,3_6,3_8,3_2,3_5,1449.9400805000005,17.066935580001882,10.016427480002676,7.58335678000185,['A1'],['B3'],['C1'],8.0,17.066935580001882,7.58335678000185,10.016427480002676,1449.9400805000005,1467.0070160800024,1449.9386261,1475.813683299999,100.0,0.0,55.0,0.0,0.0,0.0,0.0,0.0,0.0,0.0,0.0,0.0,0.0,0.0,0.0,0.0,0.0,0.4583333333333333,0.0,0.4583333333333333,0.0,0.0,1.0,,,,,,,,0,C,B,A,10.0,10.0,5.0,0.0,2.0,6.0,1.0,0.0,0.0,8,2,5,6,9,3,7,1,4,1449.9400805000005,1457.5234372800023,7.58335678000185,1457.5234372800023,1459.9565079800032,2.433070700000826,1459.9565079800032,1467.0070160800024,7.050508099999206,17.066935580001882,25.0,8.0,8.333333333333334,2.6666666666666665
70,25.0,2,3,34,3_4,3_1,3_7,3_5,3_2,3_8,3_6,3_3,3_9,1498.5450134000002,5.883445560000837,2.60040176000075,11.700469760000487,['A1'],['B1'],['C2'],8.0,11.700469760000487,2.60040176000075,5.883445560000837,1498.5450134000002,1510.2454831600007,1498.547182600003,1510.2472629000004,98.57651245551602,224.0,164.0,266.0,90.0,83.0,120.0,211.0,234.0,247.0,0.75,1.8666666666666667,1.7583333333333333,0.6916666666666667,1.3666666666666667,1.95,1.0,2.216666666666667,2.058333333333333,13.658333333333333,0.32031726662599147,0.2934716290420989,0.38621110433190975,,,21.5,0.0,21.5,0.9534883720930233,0.046511627906976744,43,B,A,C,10.0,10.0,10.0,-0.0,0.0,-0.0,0.2934716290420989,0.32031726662599147,0.38621110433190975,5,2,8,4,1,7,3,6,9,1498.5450134000002,1501.145415160001,2.60040176000075,1501.145415160001,1504.428458960001,3.2830438000000868,1504.428458960001,1510.2454831600007,5.817024199999651,11.700469760000487,30.0,0.0,10.0,0.0
71,26.0,2,3,1,3_8,3_2,3_5,3_9,3_3,3_6,3_7,3_1,3_4,1536.7638000000006,14.037880080000832,11.521675180001694,2.8222120800019184,['A3'],['B2'],['C3'],8.0,14.037880080000832,2.8222120800019184,11.521675180001694,1536.7638000000006,1550.8016800800015,1536.7640337999983,1550.8056451000011,95.84816132858838,234.0,276.0,205.0,136.0,180.0,184.0,186.0,233.0,217.0,1.9416666666666667,2.3,1.5,1.8083333333333333,1.7083333333333333,1.5333333333333334,1.55,1.95,1.1333333333333333,15.424999999999999,0.3722312263641275,0.3273905996758509,0.3003781739600216,,,16.333333333333332,24.5,8.166666666666666,0.8775510204081632,0.12244897959183673,49,C,B,A,10.0,10.0,7.0,-0.0,7.0,-0.0,0.3003781739600216,0.3273905996758509,0.3722312263641275,4,7,1,3,9,6,5,8,2,1536.7638000000006,1539.5860120800025,2.8222120800019184,1539.5860120800025,1548.2854751800023,8.699463099999775,1548.2854751800023,1550.8016800800015,2.5162048999991384,14.037880080000832,27.0,7.0,9.0,2.3333333333333335
72,27.0,2,3,7,3_8,3_5,3_2,3_7,3_4,3_1,3_9,3_6,3_3,1581.0530904000009,15.513625140003567,7.714441340003759,19.747396540004047,['A3'],['B2'],['C1'],3.0,19.747396540004047,7.714441340003759,15.513625140003567,1581.0530904000009,1600.800486940005,1583.6642233999992,1600.7976149999995,97.81234807972777,325.0,244.0,200.0,38.0,217.0,201.0,110.0,256.0,413.0,2.1333333333333333,1.8083333333333333,2.033333333333333,0.9166666666666666,0.31666666666666665,2.7083333333333335,3.441666666666667,1.675,1.6666666666666667,16.7,0.35778443113772457,0.23602794411177647,0.4061876247504991,,,0.0,46.666666666666664,23.333333333333332,0.9571428571428572,0.04285714285714286,70,B,A,C,10.0,10.0,7.0,8.0,10.0,0.0,0.23602794411177647,0.35778443113772457,0.4061876247504991,4,7,1,2,8,5,9,6,3,1581.0530904000009,1588.7675317400046,7.714441340003759,1588.7675317400046,1596.5667155400045,7.79918379999981,1596.5667155400045,1600.800486940005,4.233771400000478,19.747396540004047,27.0,18.0,9.0,6.0
73,28.0,2,3,6,3_1,3_7,3_4,3_3,3_9,3_6,3_2,3_8,3_5,1640.4777343999997,8.988006120001955,14.82153092000226,19.338382420002745,['A1'],['B2'],['C2'],7.0,19.338382420002745,8.988006120001955,14.82153092000226,1640.4777343999997,1659.8161168200024,1640.481218799996,1656.9395718999986,93.87651821862349,152.0,161.0,195.0,170.0,246.0,142.0,237.0,272.0,536.0,1.2666666666666666,1.975,1.4166666666666667,1.625,4.466666666666667,1.1833333333333333,1.3416666666666666,2.2666666666666666,2.05,17.59166666666667,0.2648034107058266,0.4135480814779725,0.3216485078162008,,,0.0,37.800000000000004,25.200000000000003,0.9206349206349206,0.07936507936507936,63,A,B,C,10.0,10.0,6.0,0.0,6.0,7.0,0.2648034107058266,0.4135480814779725,0.3216485078162008,1,7,4,9,3,6,8,2,5,1640.4777343999997,1649.4657405200016,8.988006120001955,1649.4657405200016,1655.299265320002,5.833524800000305,1655.299265320002,1659.8161168200024,4.5168515000004845,19.338382420002745,26.0,13.0,8.666666666666666,4.333333333333333
74,29.0,2,3,14,3_4,3_1,3_7,3_5,3_2,3_8,3_6,3_3,3_9,1696.7200635999998,25.413417360001404,18.597387560001152,12.980881160001443,['A1'],['B3'],['C2'],3.0,25.413417360001404,12.980881160001443,18.597387560001152,1696.7200635999998,1722.1334809600012,1696.7229966999985,1728.3648270999984,95.72413793103448,64.0,85.0,142.0,33.0,89.0,215.0,7.0,35.0,104.0,0.275,0.5333333333333333,0.058333333333333334,0.7416666666666667,0.7083333333333334,0.2916666666666667,1.7916666666666667,1.1833333333333333,0.8666666666666667,6.45,0.1343669250645995,0.2700258397932817,0.5956072351421189,,,0.0,0.0,27.0,0.9259259259259259,0.07407407407407407,27,C,B,A,10.0,10.0,10.0,10.0,7.0,0.0,0.5956072351421189,0.2700258397932817,0.1343669250645995,3,6,9,8,5,2,4,1,7,1696.7200635999998,1709.7009447600012,12.980881160001445,1709.7009447600012,1715.317451160001,5.616506399999707,1715.317451160001,1722.1334809600012,6.816029800000251,25.413417360001404,30.0,17.0,10.0,5.666666666666667
75,30.0,2,3,42,3_2,3_8,3_5,3_1,3_7,3_4,3_3,3_9,3_6,1749.6978282,4.211906360000285,16.17865265999899,11.962266659998932,['A2'],['B2'],['C1'],3.0,16.17865265999899,4.211906360000285,11.962266659998932,1749.6978282,1765.876480859999,1749.6982724000009,1755.614986499997,99.29676511954993,154.0,42.0,7.0,231.0,3.0,0.0,182.0,102.0,24.0,0.35,0.85,0.025,1.2833333333333334,1.5166666666666666,1.925,0.058333333333333334,0.2,0.0,6.208333333333333,0.19731543624161071,0.7610738255033557,0.041610738255033565,,,0.0,23.0,0.0,0.9565217391304348,0.043478260869565216,23,A,C,B,8.0,10.0,8.0,0.0,10.0,-0.0,0.19731543624161071,0.041610738255033565,0.7610738255033557,8,2,5,3,9,6,7,1,4,1749.6978282,1753.9097345600003,4.211906360000285,1753.9097345600003,1761.660094859999,7.750360299998647,1761.660094859999,1765.876480859999,4.216386000000057,16.17865265999899,26.0,10.0,8.666666666666666,3.3333333333333335
76,31.0,2,3,20,3_3,3_6,3_9,3_1,3_4,3_7,3_2,3_5,3_8,1792.9526308999991,18.403156620002846,7.986869520002074,4.7537596200036205,['A3'],['B1'],['C1'],5.0,18.403156620002846,4.7537596200036205,7.986869520002074,1792.9526308999991,1811.355787520002,1792.9485126,1811.3569306999998,93.30316742081448,53.0,102.0,367.0,41.0,26.0,512.0,322.0,391.0,781.0,3.058333333333333,4.266666666666667,6.508333333333334,0.44166666666666665,0.3416666666666667,2.683333333333333,0.85,0.21666666666666667,3.2583333333333333,21.624999999999996,0.6396917148362236,0.16030828516377651,0.20000000000000004,,,0.0,10.375,72.625,0.9036144578313253,0.0963855421686747,83,C,B,A,6.0,10.0,5.0,6.0,0.0,8.0,0.20000000000000004,0.16030828516377651,0.6396917148362236,2,5,8,1,4,7,9,3,6,1792.9526308999991,1797.7063905200027,4.7537596200036205,1797.7063905200027,1800.9395004200012,3.2331098999984533,1800.9395004200012,1811.355787520002,10.416287100000773,18.403156620002846,21.0,14.0,7.0,4.666666666666667
77,32.0,2,3,5,3_4,3_1,3_7,3_6,3_3,3_9,3_5,3_2,3_8,1845.3134252,14.81685700000162,5.717425700002423,9.250646500002404,['A3'],['B2'],['C2'],3.0,14.81685700000162,5.717425700002423,9.250646500002404,1845.3134252,1860.1302822000016,1845.315349299999,1857.2654680999985,97.83972125435541,135.0,305.0,277.0,138.0,118.0,91.0,109.0,264.0,111.0,1.15,1.125,0.9083333333333333,0.7583333333333333,2.308333333333333,0.925,0.9833333333333333,2.5416666666666665,2.2,12.899999999999999,0.2467700258397933,0.3094315245478036,0.4437984496124031,,,0.0,40.285714285714285,6.714285714285714,0.851063829787234,0.14893617021276595,47,B,C,A,10.0,10.0,10.0,0.0,0.0,10.0,0.3094315245478036,0.4437984496124031,0.2467700258397933,3,6,9,2,5,8,7,4,1,1845.3134252,1851.0308509000024,5.717425700002423,1851.0308509000024,1854.5640717000024,3.533220799999981,1854.5640717000024,1860.1302822000016,5.566210499999215,14.816857000001619,30.0,10.0,10.0,3.3333333333333335
78,33.0,2,3,2,3_4,3_7,3_1,3_5,3_8,3_2,3_6,3_9,3_3,1895.9172454,3.3351095800026087,6.102041380003357,11.85195078000288,['A2'],['B1'],['C1'],8.0,11.85195078000288,3.3351095800026087,6.102041380003357,1895.9172454,1907.7691961800028,1895.915620599997,1902.4656554999965,100.0,63.0,115.0,134.0,0.0,0.0,303.0,85.0,137.0,117.0,0.0,0.7083333333333334,0.525,0.0,1.1416666666666666,0.9583333333333334,2.525,0.975,1.1166666666666667,7.950000000000001,0.1551362683438155,0.2641509433962264,0.5807127882599581,,,0.0,37.0,0.0,0.972972972972973,0.02702702702702703,37,A,B,C,10.0,10.0,10.0,0.0,-0.0,4.0,0.1551362683438155,0.2641509433962264,0.5807127882599581,7,4,1,5,8,2,6,9,3,1895.9172454,1899.2523549800026,3.3351095800026087,1899.2523549800026,1902.0192867800033,2.766931800000748,1902.0192867800033,1907.7691961800028,5.749909399999524,11.85195078000288,30.0,4.0,10.0,1.3333333333333333
79,34.0,2,3,40,3_7,3_1,3_4,3_8,3_2,3_5,3_9,3_3,3_6,1941.2755629999992,3.531973480001397,7.633432480002739,17.915175280002586,['A3'],['B2'],['C2'],3.0,17.915175280002586,3.531973480001397,7.633432480002739,1941.2755629999992,1959.1907382800018,1941.2741814,1948.757547899997,98.77641824249166,90.0,267.0,7.0,114.0,65.0,2.0,241.0,131.0,1.0,2.0083333333333333,0.75,0.95,1.0916666666666666,2.225,0.5416666666666666,0.008333333333333333,0.058333333333333334,0.016666666666666666,7.6499999999999995,0.48474945533769065,0.5043572984749455,0.010893246187363835,,,6.666666666666667,13.333333333333334,0.0,0.85,0.15,20,A,B,C,10.0,10.0,-0.0,-0.0,0.0,10.0,0.48474945533769065,0.5043572984749455,0.010893246187363835,4,7,1,2,8,5,3,9,6,1941.2755629999992,1944.8075364800006,3.5319734800013975,1944.8075364800006,1948.908995480002,4.101459000001341,1948.908995480002,1959.1907382800018,10.281742799999847,17.915175280002586,20.0,10.0,6.666666666666667,3.3333333333333335
80,35.0,2,3,24,3_6,3_3,3_9,3_5,3_2,3_8,3_4,3_1,3_7,1982.8560851999991,3.0781140600010986,14.11147376000008,14.661492060000455,['A3'],['B3'],['C3'],0.0,14.661492060000455,3.0781140600010986,14.11147376000008,1982.8560851999991,1997.5175772599996,1982.8576899000036,1997.5160749999995,92.89772727272727,205.0,40.0,462.0,317.0,111.0,221.0,278.0,76.0,147.0,1.8416666666666666,3.85,1.225,0.925,0.3333333333333333,0.6333333333333333,2.6416666666666666,1.7083333333333333,2.316666666666667,15.475,0.44695745826602046,0.12224017232094776,0.43080236941303174,,,23.5,0.0,23.5,0.9148936170212766,0.0851063829787234,47,A,B,C,10.0,-0.0,0.0,0.0,10.0,10.0,0.44695745826602046,0.12224017232094776,0.43080236941303174,9,6,3,8,5,2,7,4,1,1982.8560851999991,1985.9341992600002,3.0781140600010986,1985.9341992600002,1996.9675589599992,11.033359699998982,1996.9675589599992,1997.5175772599996,0.5500183000003744,14.661492060000455,10.0,20.0,3.3333333333333335,6.666666666666667
81,36.0,2,3,32,3_4,3_1,3_7,3_5,3_2,3_8,3_6,3_3,3_9,2020.4147386000004,18.18479836000006,4.5686359600003925,9.40229656000156,['A3'],['B2'],['C1'],10.0,18.18479836000006,4.5686359600003925,9.40229656000156,2020.4147386000004,2038.5995369600005,2032.3245688999996,2038.5996715,94.82758620689656,1.0,3.0,268.0,2.0,2.0,245.0,105.0,43.0,149.0,0.016666666666666666,0.008333333333333333,0.875,0.016666666666666666,0.025,0.35833333333333334,2.0416666666666665,2.2333333333333334,1.2416666666666667,6.816666666666667,0.13202933985330073,0.05867970660146699,0.8092909535452323,,,0.0,0.0,22.0,0.9090909090909091,0.09090909090909091,22,B,C,A,10.0,10.0,10.0,0.0,2.0,7.0,0.05867970660146699,0.8092909535452323,0.13202933985330073,2,5,8,6,3,9,7,4,1,2020.4147386000004,2024.9833745600008,4.5686359600003925,2024.9833745600008,2029.817035160002,4.833660600001167,2029.817035160002,2038.5995369600005,8.7825017999985,18.18479836000006,30.0,9.0,10.0,3.0
82,37.0,2,3,33,3_3,3_6,3_9,3_1,3_4,3_7,3_2,3_5,3_8,2070.2911172000004,8.424385979998988,4.674879379997947,10.841589279998516,['A1'],['B3'],['C3'],4.0,10.841589279998516,4.674879379997947,8.424385979998988,2070.2911172000004,2081.132706479999,2059.5246990999985,2059.5246990999985,100.0,0.0,0.0,0.0,0.0,0.0,0.0,0.0,1.0,0.0,0.0,0.0,0.0,0.0,0.0,0.0,0.0,0.0,0.008333333333333333,0.008333333333333333,0.0,0.0,1.0,,,,,,,,0,B,A,C,3.0,10.0,7.0,6.0,8.0,6.0,0.0,0.0,1.0,7,1,4,3,6,9,8,2,5,2070.2911172000004,2074.9659965799983,4.674879379997947,2074.9659965799983,2078.7155031799994,3.749506600001041,2078.7155031799994,2081.132706479999,2.417203299999528,10.841589279998516,20.0,20.0,6.666666666666667,6.666666666666667
83,38.0,2,3,30,3_9,3_3,3_6,3_8,3_2,3_5,3_7,3_1,3_4,2109.7388088000007,12.658720199999152,3.658858799999507,7.792192199998681,['A3'],['B1'],['C1'],8.0,12.658720199999152,3.658858799999507,7.792192199998681,2109.7388088000007,2122.397529,2109.741607199998,2122.400020500001,98.42105263157895,259.0,294.0,259.0,167.0,152.0,94.0,227.0,158.0,105.0,0.875,2.158333333333333,0.7833333333333333,1.3166666666666667,2.45,1.2666666666666666,1.8916666666666666,2.158333333333333,1.3916666666666666,14.291666666666666,0.26705539358600583,0.3521865889212828,0.3807580174927114,,,17.333333333333332,0.0,34.666666666666664,0.9423076923076923,0.057692307692307696,52,B,C,A,10.0,7.0,10.0,0.0,6.0,4.0,0.3521865889212828,0.3807580174927114,0.26705539358600583,8,2,5,7,1,4,6,9,3,2109.7388088000007,2113.3976676,3.658858799999507,2113.3976676,2117.5310009999994,4.133333399999174,2117.5310009999994,2122.397529,4.866528000000471,12.658720199999152,27.0,10.0,9.0,3.3333333333333335
84,39.0,2,3,22,3_8,3_2,3_5,3_7,3_1,3_4,3_9,3_3,3_6,2147.16078,11.412288440002158,6.99593434000235,15.063965940002165,['A1'],['B1'],['C2'],7.0,15.063965940002165,6.99593434000235,11.412288440002158,2147.16078,2162.2247459400023,2148.4834678000007,2162.2251291999964,87.57575757575758,76.0,184.0,381.0,40.0,174.0,190.0,176.0,192.0,161.0,1.6,1.5333333333333334,1.45,1.4666666666666666,0.6333333333333333,0.3333333333333333,1.3416666666666666,3.175,1.5833333333333333,13.116666666666667,0.34942820838627703,0.18551461245235068,0.46505717916137224,,,,,,1.0,0.0,62,B,A,C,10.0,10.0,10.0,6.0,-0.0,3.0,0.18551461245235068,0.34942820838627703,0.46505717916137224,7,1,4,8,2,5,3,9,6,2147.16078,2154.1567143400025,6.99593434000235,2154.1567143400025,2158.5730684400023,4.416354099999808,2158.5730684400023,2162.2247459400023,3.6516775000000052,15.063965940002163,30.0,9.0,10.0,3.0
85,40.0,2,3,31,3_9,3_6,3_3,3_7,3_4,3_1,3_8,3_5,3_2,2192.2020637999995,4.176480240003002,9.460035040003277,12.526864840003327,['A1'],['B2'],['C3'],3.0,12.526864840003327,4.176480240003002,9.460035040003277,2192.2020637999995,2204.728928640003,2194.5669500000004,2204.725348699998,93.0327868852459,71.0,4.0,287.0,1.0,83.0,75.0,3.0,216.0,463.0,3.8583333333333334,0.625,2.3916666666666666,0.025,0.008333333333333333,0.5916666666666667,1.8,0.6916666666666667,0.03333333333333333,10.025,0.685785536159601,0.062344139650872814,0.25187032418952615,,,0.0,10.0,10.0,0.9,0.1,20,A,B,C,10.0,10.0,10.0,2.0,10.0,10.0,0.685785536159601,0.062344139650872814,0.25187032418952615,9,6,3,4,7,1,2,8,5,2192.2020637999995,2196.3785440400025,4.176480240003002,2196.3785440400025,2201.6620988400027,5.2835548000002746,2201.6620988400027,2204.728928640003,3.0668298000000505,12.526864840003327,30.0,22.0,10.0,7.333333333333333
86,41.0,2,3,9,3_8,3_2,3_5,3_7,3_1,3_4,3_9,3_3,3_6,2232.4694648000004,16.65809936000187,7.207403160002286,11.45782096000221,['A1'],['B2'],['C3'],7.0,16.65809936000187,7.207403160002286,11.45782096000221,2232.4694648000004,2249.1275641600023,2244.867256900001,2249.125609300001,68.1640625,36.0,92.0,2.0,0.0,39.0,0.0,28.0,8.0,0.0,0.06666666666666667,0.7666666666666667,0.325,0.23333333333333334,0.3,0.0,0.0,0.016666666666666666,0.0,1.7083333333333335,0.6780487804878049,0.31219512195121946,0.009756097560975608,,,0.0,12.0,0.0,0.75,0.25,12,B,C,A,10.0,10.0,10.0,6.0,0.0,0.0,0.31219512195121946,0.009756097560975608,0.6780487804878049,1,7,4,6,9,3,8,2,5,2232.4694648000004,2239.6768679600027,7.207403160002286,2239.6768679600027,2243.9272857600026,4.250417799999923,2243.9272857600026,2249.1275641600023,5.200278399999661,16.65809936000187,30.0,6.0,10.0,2.0
87,42.0,2,3,28,3_5,3_8,3_2,3_4,3_7,3_1,3_6,3_9,3_3,2278.5138179000005,18.148065400000636,28.014777700000195,39.31479460000082,['A1'],['B1'],['C2'],3.0,39.31479460000082,18.148065400000636,28.014777700000195,2278.5138179000005,2317.8286125000013,2286.0340173000004,2310.150798800001,92.12435233160622,338.0,303.0,142.0,309.0,162.0,443.0,430.0,272.0,305.0,1.35,2.2666666666666666,2.525,2.575,3.5833333333333335,2.816666666666667,3.691666666666667,2.5416666666666665,1.1833333333333333,22.533333333333335,0.2725591715976331,0.3982988165680473,0.3291420118343195,,,19.0,38.0,19.0,0.8947368421052632,0.10526315789473684,76,A,B,C,10.0,10.0,10.0,10.0,10.0,10.0,0.2725591715976331,0.3982988165680473,0.3291420118343195,5,8,2,4,7,1,9,6,3,2278.5138179000005,2296.661883300001,18.148065400000633,2296.661883300001,2306.5285956000007,9.866712299999563,2306.5285956000007,2317.8286125000013,11.300016900000628,39.31479460000082,30.0,30.0,10.0,10.0
88,43.0,2,3,36,3_2,3_8,3_5,3_1,3_7,3_4,3_3,3_9,3_6,2339.213811600001,12.044585940000616,8.195191740001974,4.812089140001262,['A1'],['B1'],['C2'],7.0,12.044585940000616,4.812089140001262,8.195191740001974,2339.213811600001,2351.2583975400016,2339.217598200001,2346.5010368999974,96.11428571428571,110.0,126.0,53.0,113.0,86.0,97.0,45.0,199.0,70.0,1.05,1.6583333333333334,0.7166666666666667,0.9166666666666666,0.375,0.9416666666666667,0.44166666666666665,0.5833333333333334,0.8083333333333333,7.491666666666666,0.4571746384872081,0.2981090100111235,0.2447163515016685,,,0.0,14.0,14.0,0.9285714285714286,0.07142857142857142,28,C,B,A,9.0,5.0,3.0,-0.0,3.0,4.0,0.2447163515016685,0.2981090100111235,0.4571746384872081,9,3,6,1,7,4,2,8,5,2339.213811600001,2344.0259007400023,4.812089140001262,2344.0259007400023,2347.409003340003,3.3831026000007114,2347.409003340003,2351.2583975400016,3.849394199998642,12.044585940000616,17.0,7.0,5.666666666666667,2.3333333333333335
89,44.0,2,3,10,3_1,3_7,3_4,3_2,3_8,3_5,3_3,3_9,3_6,2379.0908604,20.66678580000371,10.301797900003294,2.4012807000035536,['A3'],['B1'],['C3'],7.0,20.66678580000371,2.4012807000035536,10.301797900003294,2379.0908604,2399.757646200004,2379.092821399998,2393.751188399998,98.18181818181819,346.0,229.0,163.0,98.0,88.0,140.0,246.0,316.0,408.0,2.8833333333333333,2.05,0.8166666666666667,1.9083333333333334,2.6333333333333333,0.7333333333333333,1.3583333333333334,3.4,1.1666666666666667,16.95,0.3392330383480826,0.31120943952802366,0.3495575221238938,,,10.5,31.5,0.0,0.9047619047619048,0.09523809523809523,42,C,B,A,10.0,10.0,10.0,2.0,7.0,0.0,0.3495575221238938,0.31120943952802366,0.3392330383480826,6,3,9,2,8,5,4,1,7,2379.0908604,2381.4921411000037,2.4012807000035536,2381.4921411000037,2389.3926583000034,7.90051719999974,2389.3926583000034,2399.757646200004,10.364987900000415,20.66678580000371,30.0,9.0,10.0,3.0
90,0.0,3,3,13,3_1,3_7,3_4,3_2,3_8,3_5,3_3,3_9,3_6,373.2478291999996,19.563377579999724,16.146981379999488,9.564081579999764,['A1'],['B2'],['C3'],9.0,19.563377579999724,9.564081579999764,16.146981379999488,373.2478291999996,392.81120677999934,373.2476050999976,374.2309149999928,100.0,119.0,0.0,0.0,0.0,0.0,0.0,0.0,0.0,0.0,0.9916666666666667,0.0,0.0,0.0,0.0,0.0,0.0,0.0,0.0,0.9916666666666667,1.0,0.0,0.0,,,,,,,,0,C,B,A,5.0,1.0,9.0,2.0,2.0,2.0,0.0,0.0,1.0,6,3,9,8,2,5,1,7,4,373.2478291999996,382.8119107799994,9.564081579999765,382.8119107799994,389.3948105799991,6.582899799999723,389.3948105799991,392.81120677999934,3.4163962000002357,19.563377579999724,15.0,6.0,5.0,2.0
91,1.0,3,3,38,3_4,3_1,3_7,3_5,3_2,3_8,3_6,3_3,3_9,443.6346453999995,15.202034220001224,21.48567292000007,10.052556320000804,['A3'],['B3'],['C2'],9.0,21.48567292000007,10.052556320000804,15.202034220001224,443.6346453999995,465.12031831999957,443.63134590000845,454.06460179999704,100.0,79.0,217.0,277.0,62.0,71.0,104.0,33.0,307.0,141.0,0.5166666666666667,0.6583333333333333,0.275,0.5916666666666667,1.8083333333333333,2.558333333333333,0.8666666666666667,2.308333333333333,1.175,10.758333333333333,0.1347792408985283,0.4608830364058869,0.4043377226955848,,,0.0,46.0,0.0,0.9565217391304348,0.043478260869565216,46,C,A,B,6.0,10.0,2.0,2.0,4.0,2.0,0.4043377226955848,0.1347792408985283,0.4608830364058869,3,6,9,7,4,1,8,5,2,443.6346453999995,453.6872017200003,10.052556320000804,453.6872017200003,458.8366796200007,5.14947790000042,458.8366796200007,465.12031831999957,6.283638699998846,21.48567292000007,18.0,8.0,6.0,2.6666666666666665
92,2.0,3,3,20,3_4,3_1,3_7,3_5,3_2,3_8,3_6,3_3,3_9,511.1627131999994,5.515671500004828,9.632323500001805,12.282698300004997,['A2'],['B1'],['C1'],9.0,12.282698300004997,5.515671500004828,9.632323500001805,511.1627131999994,523.4454115000044,511.28991320000205,523.4482739999949,98.83561643835617,360.0,140.0,235.0,108.0,89.0,32.0,2.0,258.0,487.0,0.9,3.0,0.016666666666666666,0.7416666666666667,1.1666666666666667,2.15,0.26666666666666666,1.9583333333333333,4.058333333333334,14.258333333333333,0.27469316189362947,0.2846288720046757,0.4406779661016949,,,0.0,27.5,27.5,0.9636363636363636,0.03636363636363636,55,A,B,C,10.0,7.0,3.0,0.0,2.0,3.0,0.27469316189362947,0.2846288720046757,0.4406779661016949,1,4,7,5,2,8,6,3,9,511.1627131999994,516.6783847000042,5.515671500004828,516.6783847000042,520.7950367000012,4.116651999996975,520.7950367000012,523.4454115000044,2.650374800003192,12.282698300004995,20.0,5.0,6.666666666666667,1.6666666666666667
93,3.0,3,3,2,3_4,3_1,3_7,3_5,3_2,3_8,3_6,3_3,3_9,571.8026571999999,15.486919940001826,10.421073240002444,6.654467440002918,['A2'],['B3'],['C3'],10.0,15.486919940001826,6.654467440002918,10.421073240002444,571.8026571999999,587.2895771400017,596.6236440999928,596.6236440999928,100.0,0.0,0.0,0.0,0.0,0.0,0.0,0.0,0.0,0.0,0.0,0.0,0.0,0.0,0.0,0.0,0.0,0.0,0.0,0.0,,,,,,,,,,,0,C,B,A,7.0,3.0,3.0,2.0,3.0,2.0,,,,9,6,3,8,5,2,1,4,7,571.8026571999999,578.4571246400028,6.654467440002918,578.4571246400028,582.2237304400023,3.7666057999995246,582.2237304400023,587.2895771400017,5.065846699999383,15.486919940001826,13.0,7.0,4.333333333333333,2.3333333333333335
94,4.0,3,3,8,3_5,3_2,3_8,3_6,3_3,3_9,3_4,3_1,3_7,640.5725000000002,11.19435634000547,21.67874354000378,26.46147584000209,['A1'],['B2'],['C2'],6.0,26.46147584000209,11.19435634000547,21.67874354000378,640.5725000000002,667.0339758400023,637.3238046999904,693.4824109000037,100.0,0.0,0.0,0.0,0.0,1.0,0.0,0.0,0.0,0.0,0.008333333333333333,0.0,0.0,0.0,0.0,0.0,0.0,0.0,0.0,0.008333333333333333,1.0,0.0,0.0,,,,,,,,0,A,B,C,9.0,9.0,9.0,9.0,6.0,3.0,1.0,0.0,0.0,5,2,8,3,6,9,1,4,7,640.5725000000002,651.7668563400057,11.19435634000547,651.7668563400057,662.251243540004,10.48438719999831,662.251243540004,667.0339758400023,4.782732299998315,26.461475840002095,27.0,18.0,9.0,6.0
95,5.0,3,3,35,3_3,3_9,3_6,3_2,3_8,3_5,3_1,3_7,3_4,707.505504499999,12.780214579997846,21.61358467999889,16.91430907999893,['A2'],['B1'],['C3'],7.0,21.61358467999889,12.780214579997846,16.91430907999893,707.505504499999,729.1190891799979,707.5074176000053,712.1075045000034,100.0,34.0,45.0,160.0,99.0,50.0,124.0,86.0,82.0,82.0,1.3333333333333333,0.6833333333333333,1.0333333333333334,0.375,0.6833333333333333,0.4166666666666667,0.2833333333333333,0.7166666666666667,0.825,6.3500000000000005,0.4803149606299212,0.23228346456692914,0.2874015748031496,,,24.0,0.0,12.0,0.9166666666666666,0.08333333333333333,36,A,C,B,8.0,10.0,10.0,3.0,0.0,0.0,0.4803149606299212,0.2874015748031496,0.23228346456692914,9,3,6,4,1,7,2,8,5,707.505504499999,720.2857190799969,12.780214579997846,720.2857190799969,724.4198135799979,4.134094500001083,724.4198135799979,729.1190891799979,4.6992755999999645,21.613584679998894,28.0,3.0,9.333333333333334,1.0
96,6.0,3,3,16,3_6,3_9,3_3,3_5,3_8,3_2,3_4,3_7,3_1,765.2349287999987,26.63337478000176,39.00000948000161,36.100656779999554,['A2'],['B3'],['C2'],3.0,39.00000948000161,26.63337478000176,36.100656779999554,765.2349287999987,804.2349382800003,765.2327189999924,791.9411861999979,99.68808484092327,290.0,356.0,480.0,218.0,147.0,500.0,220.0,509.0,654.0,4.166666666666667,5.45,4.0,1.225,4.241666666666666,2.966666666666667,1.8166666666666667,1.8333333333333333,2.4166666666666665,28.116666666666667,0.4842916419679905,0.2999407231772377,0.21576763485477177,,,0.0,106.0,0.0,0.9905660377358491,0.009433962264150943,106,A,C,B,8.0,6.0,4.0,6.0,2.0,7.0,0.4842916419679905,0.21576763485477177,0.2999407231772377,9,6,3,7,4,1,2,5,8,765.2349287999987,791.8683035800004,26.63337478000176,791.8683035800004,801.3355855799982,9.467281999997795,801.3355855799982,804.2349382800003,2.899352700002055,39.00000948000161,18.0,15.0,6.0,5.0
97,7.0,3,3,19,3_3,3_9,3_6,3_1,3_7,3_4,3_2,3_8,3_5,844.1177549000004,12.050577460006023,15.36672436000299,8.183967860004486,['A1'],['B1'],['C1'],9.0,15.36672436000299,8.183967860004486,12.050577460006023,844.1177549000004,859.4844792600034,852.5165185000078,859.4830783999932,98.32735961768219,269.0,5.0,123.0,100.0,129.0,86.0,60.0,147.0,122.0,1.025,1.0166666666666666,0.7166666666666667,2.2416666666666667,0.5,0.8333333333333334,0.041666666666666664,1.225,1.075,8.675,0.3179634966378482,0.41210374639769454,0.26993275696445723,,,,,,1.0,0.0,27,C,A,B,7.0,6.0,8.0,2.0,2.0,2.0,0.26993275696445723,0.3179634966378482,0.41210374639769454,2,8,5,3,9,6,1,7,4,844.1177549000004,852.3017227600048,8.183967860004486,852.3017227600048,856.1683323600064,3.8666096000015386,856.1683323600064,859.4844792600034,3.3161468999969657,15.36672436000299,21.0,6.0,7.0,2.0
98,8.0,3,3,36,3_8,3_2,3_5,3_9,3_3,3_6,3_7,3_1,3_4,899.9630553000006,30.133085120000032,16.78387551999913,24.61755092000021,['A3'],['B3'],['C2'],5.0,30.133085120000032,16.78387551999913,24.61755092000021,899.9630553000006,930.0961404200007,922.3334306000033,930.1001296999893,99.2497320471597,43.0,104.0,22.0,76.0,137.0,85.0,76.0,404.0,397.0,3.3666666666666667,0.8666666666666667,1.1416666666666666,3.308333333333333,0.18333333333333332,0.7083333333333334,0.6333333333333333,0.35833333333333334,0.6333333333333333,11.2,0.4799107142857143,0.37499999999999994,0.14508928571428573,,,,,,1.0,0.0,29,B,C,A,6.0,3.0,6.0,6.0,6.0,6.0,0.37499999999999994,0.14508928571428573,0.4799107142857143,6,9,3,1,7,4,5,8,2,899.9630553000006,916.7469308199998,16.78387551999913,916.7469308199998,924.5806062200008,7.833675400001084,924.5806062200008,930.0961404200007,5.51553419999982,30.133085120000032,15.0,18.0,5.0,6.0
99,9.0,3,3,9,3_4,3_7,3_1,3_6,3_9,3_3,3_5,3_8,3_2,974.1755095999996,8.3282565000045,7.12834620000649,16.09635380000691,['A1'],['B1'],['C2'],6.0,16.09635380000691,7.12834620000649,8.3282565000045,974.1755095999996,990.2718634000065,970.5336661000038,970.5336661000038,100.0,0.0,0.0,1.0,1.0,0.0,0.0,0.0,0.0,0.0,0.008333333333333333,0.0,0.0,0.0,0.0,0.008333333333333333,0.0,0.0,0.0,0.016666666666666666,0.5,0.5,0.0,,,,,,,,0,B,A,C,7.0,8.0,6.0,2.0,1.0,6.0,0.5,0.5,0.0,6,9,3,4,7,1,8,5,2,974.1755095999996,981.3038558000061,7.12834620000649,981.3038558000061,982.5037661000041,1.1999102999980096,982.5037661000041,990.2718634000065,7.76809730000241,16.09635380000691,21.0,9.0,7.0,3.0
100,10.0,3,3,10,3_5,3_2,3_8,3_6,3_3,3_9,3_4,3_1,3_7,1037.404338800001,24.39271162000296,13.00965062000614,8.743511820004642,['A2'],['B1'],['C3'],3.0,24.39271162000296,8.743511820004642,13.00965062000614,1037.404338800001,1061.7970504200039,1037.4006569000048,1041.9506804999983,100.0,3.0,208.0,3.0,1.0,134.0,42.0,1.0,45.0,18.0,1.1166666666666667,1.7333333333333334,0.375,0.35,0.025,0.15,0.008333333333333333,0.025,0.008333333333333333,3.7916666666666665,0.8505494505494506,0.13846153846153847,0.010989010989010988,,,0.0,17.0,0.0,0.8823529411764706,0.11764705882352941,17,C,B,A,9.0,8.0,8.0,1.0,8.0,7.0,0.010989010989010988,0.13846153846153847,0.8505494505494506,7,4,1,6,3,9,2,5,8,1037.404338800001,1046.1478506200056,8.743511820004642,1046.1478506200056,1050.413989420007,4.2661388000014995,1050.413989420007,1061.7970504200039,11.383060999996815,24.392711620002956,25.0,16.0,8.333333333333334,5.333333333333333
101,11.0,3,3,14,3_6,3_3,3_9,3_4,3_1,3_7,3_5,3_2,3_8,1103.7674906999982,10.28144216000146,5.7154001600029005,13.664682360002187,['A2'],['B1'],['C1'],4.0,13.664682360002187,5.7154001600029005,10.28144216000146,1103.7674906999982,1117.4321730600004,1103.7676349999965,1108.3259154999978,98.17518248175182,37.0,165.0,1.0,0.0,44.0,2.0,2.0,81.0,133.0,0.016666666666666666,0.008333333333333333,1.1083333333333334,0.0,0.30833333333333335,0.016666666666666666,0.36666666666666664,1.375,0.675,3.875,0.2924731182795699,0.08387096774193549,0.6236559139784947,,,,,,1.0,0.0,14,B,A,C,1.0,2.0,10.0,5.0,5.0,1.0,0.08387096774193549,0.2924731182795699,0.6236559139784947,4,1,7,3,6,9,5,2,8,1103.7674906999982,1109.4828908600011,5.7154001600029005,1109.4828908600011,1114.0489328599997,4.566041999998561,1114.0489328599997,1117.4321730600004,3.383240200000728,13.664682360002189,13.0,11.0,4.333333333333333,3.6666666666666665
102,12.0,3,3,32,3_4,3_7,3_1,3_6,3_9,3_3,3_5,3_8,3_2,1158.0172823999983,18.30658010000116,14.10675800000172,22.50714880000305,['A2'],['B1'],['C2'],9.0,22.50714880000305,14.10675800000172,18.30658010000116,1158.0172823999983,1180.5244312000013,1158.0178203999967,1179.9595584000053,96.05163249810175,221.0,233.0,422.0,492.0,276.0,147.0,473.0,226.0,244.0,4.1,3.941666666666667,1.8416666666666666,1.225,2.033333333333333,3.5166666666666666,2.3,1.8833333333333333,1.9416666666666667,22.78333333333333,0.4337966349670812,0.2973664959765911,0.26883686905632775,,,44.0,29.333333333333336,14.666666666666668,0.9318181818181818,0.06818181818181818,88,B,A,C,6.0,7.0,4.0,1.0,1.0,2.0,0.2973664959765911,0.4337966349670812,0.26883686905632775,6,9,3,7,4,1,8,5,2,1158.0172823999983,1172.1240404,14.106758000001719,1172.1240404,1176.3238624999994,4.199822099999437,1176.3238624999994,1180.5244312000013,4.200568700001895,22.50714880000305,17.0,4.0,5.666666666666667,1.3333333333333333
103,13.0,3,3,24,3_1,3_7,3_4,3_3,3_9,3_6,3_2,3_8,3_5,1217.895179199999,16.83712491999904,7.3546083199980785,29.387515520000303,['A1'],['B3'],['C1'],2.0,29.387515520000303,7.3546083199980785,16.83712491999904,1217.895179199999,1247.2826947199992,1219.2598016999982,1237.4931883999961,92.91914116034718,476.0,205.0,241.0,155.0,216.0,178.0,37.0,317.0,356.0,3.966666666666667,0.30833333333333335,1.2916666666666667,2.0083333333333333,2.966666666666667,1.4833333333333334,1.7083333333333333,2.6416666666666666,1.8,18.175,0.30628152223750577,0.35534158642824387,0.3383768913342503,,,10.2,30.6,10.2,0.9019607843137255,0.09803921568627451,51,B,A,C,2.0,9.0,9.0,9.0,9.0,9.0,0.35534158642824387,0.30628152223750577,0.3383768913342503,6,3,9,1,7,4,2,8,5,1217.895179199999,1225.249787519997,7.3546083199980785,1225.249787519997,1234.732304119998,9.482516600000963,1234.732304119998,1247.2826947199992,12.550390600001265,29.387515520000306,20.0,27.0,6.666666666666667,9.0
104,14.0,3,3,12,3_6,3_3,3_9,3_4,3_1,3_7,3_5,3_2,3_8,1282.7200298999978,2.482282919998397,16.89994251999815,13.5325932199994,['A1'],['B1'],['C3'],3.0,16.89994251999815,2.482282919998397,13.5325932199994,1282.7200298999978,1299.619972419996,1291.3600984000077,1299.6184879999928,97.88306451612904,82.0,4.0,165.0,183.0,124.0,67.0,1.0,249.0,95.0,0.5583333333333333,1.375,0.7916666666666666,1.525,0.6833333333333333,0.008333333333333333,1.0333333333333334,0.03333333333333333,2.075,8.083333333333334,0.33711340206185564,0.27422680412371125,0.388659793814433,,,0.0,24.0,0.0,0.9583333333333334,0.041666666666666664,24,A,C,B,2.0,3.0,3.0,1.0,6.0,2.0,0.33711340206185564,0.388659793814433,0.27422680412371125,6,3,9,8,5,2,4,1,7,1282.7200298999978,1285.2023128199962,2.482282919998397,1285.2023128199962,1296.2526231199972,11.050310300001001,1296.2526231199972,1299.619972419996,3.36734929999875,16.89994251999815,8.0,9.0,2.6666666666666665,3.0
105,15.0,3,3,6,3_2,3_8,3_5,3_1,3_7,3_4,3_3,3_9,3_6,1365.808095399998,7.9562987000063,21.07304320000549,18.090093700004218,['A1'],['B3'],['C3'],9.0,21.07304320000549,7.9562987000063,18.090093700004218,1365.808095399998,1386.8811386000034,1382.852109600004,1386.8771899999992,93.18181818181817,52.0,112.0,1.0,22.0,36.0,1.0,1.0,220.0,59.0,0.9333333333333333,1.8333333333333333,0.3,0.43333333333333335,0.008333333333333333,0.18333333333333332,0.008333333333333333,0.49166666666666664,0.008333333333333333,4.199999999999999,0.7301587301587302,0.14880952380952384,0.12103174603174605,,,0.0,23.0,0.0,0.9130434782608695,0.08695652173913043,23,A,C,B,10.0,5.0,3.0,4.0,8.0,1.0,0.7301587301587302,0.12103174603174605,0.14880952380952384,2,8,5,6,3,9,4,1,7,1365.808095399998,1373.7643941000042,7.9562987000063,1373.7643941000042,1383.8981891000021,10.133794999997917,1383.8981891000021,1386.8811386000034,2.9829495000012685,21.073043200005486,18.0,13.0,6.0,4.333333333333333
106,16.0,3,3,22,3_2,3_8,3_5,3_3,3_9,3_6,3_1,3_7,3_4,1425.7839919999988,12.183697879998364,2.8508499800009304,6.684679679998226,['A3'],['B2'],['C3'],6.0,12.183697879998364,2.8508499800009304,6.684679679998226,1425.7839919999988,1437.9676898799971,1402.6189423000033,1469.5775231000007,100.0,1.0,0.0,0.0,0.0,0.0,0.0,0.0,1.0,0.0,0.0,0.008333333333333333,0.0,0.0,0.0,0.0,0.008333333333333333,0.0,0.0,0.016666666666666666,0.5,0.0,0.5,,,,,,1.0,0.0,1,B,C,A,2.0,2.0,2.0,2.0,2.0,2.0,0.0,0.5,0.5,9,3,6,4,1,7,5,2,8,1425.7839919999988,1428.6348419799997,2.8508499800009304,1428.6348419799997,1432.468671679997,3.8338296999972954,1432.468671679997,1437.9676898799971,5.499018200000137,12.183697879998363,6.0,6.0,2.0,2.0
107,17.0,3,3,33,3_9,3_6,3_3,3_8,3_5,3_2,3_7,3_4,3_1,1472.348299899999,15.318016900000655,11.51861270000154,8.168832300001668,['A2'],['B3'],['C2'],3.0,15.318016900000655,8.168832300001668,11.51861270000154,1472.348299899999,1487.6663167999995,1472.3442085999995,1483.0360008999996,99.29906542056075,238.0,304.0,153.0,110.0,69.0,20.0,134.0,250.0,221.0,1.8416666666666666,0.16666666666666666,1.275,2.0833333333333335,0.575,2.533333333333333,1.1166666666666667,0.9166666666666666,1.9833333333333334,12.491666666666667,0.26284189459639756,0.4156104069379586,0.32154769846564374,,,0.0,36.0,0.0,0.9722222222222222,0.027777777777777776,36,C,B,A,3.0,2.0,2.0,2.0,5.0,2.0,0.32154769846564374,0.4156104069379586,0.26284189459639756,4,7,1,2,8,5,6,9,3,1472.348299899999,1480.5171322000006,8.168832300001668,1480.5171322000006,1483.8669126000004,3.3497803999998723,1483.8669126000004,1487.6663167999995,3.799404199999117,15.318016900000657,7.0,9.0,2.3333333333333335,3.0
108,18.0,3,3,15,3_2,3_8,3_5,3_3,3_9,3_6,3_1,3_7,3_4,1520.7515232999997,14.897051519998058,10.480754619995423,5.914524619995063,['A2'],['B2'],['C3'],5.0,14.897051519998058,5.914524619995063,10.480754619995423,1520.7515232999997,1535.6485748199977,1520.7527677000035,1535.6445879999956,96.25279642058166,280.0,24.0,30.0,386.0,397.0,78.0,457.0,94.0,90.0,0.2,0.7833333333333333,3.308333333333333,0.25,0.75,0.65,2.3333333333333335,3.808333333333333,3.216666666666667,15.3,0.2805010893246187,0.10784313725490195,0.6116557734204794,,,64.0,0.0,0.0,0.96875,0.03125,64,C,B,A,10.0,8.0,6.0,0.0,1.0,3.0,0.6116557734204794,0.10784313725490195,0.2805010893246187,4,1,7,9,3,6,8,2,5,1520.7515232999997,1526.6660479199948,5.914524619995063,1526.6660479199948,1531.232277919995,4.56623000000036,1531.232277919995,1535.6485748199977,4.416296900002635,14.897051519998058,24.0,4.0,8.0,1.3333333333333333
109,19.0,3,3,27,3_7,3_1,3_4,3_9,3_3,3_6,3_8,3_2,3_5,1570.5747637999975,16.474784919999365,11.225658719999046,7.925749319998431,['A3'],['B3'],['C3'],7.0,16.474784919999365,7.925749319998431,11.225658719999046,1570.5747637999975,1587.049548719997,1547.8695776000095,1613.1698404999916,100.0,0.0,0.0,0.0,0.0,0.0,0.0,0.0,0.0,1.0,0.0,0.0,0.0,0.008333333333333333,0.0,0.0,0.0,0.0,0.0,0.008333333333333333,0.0,1.0,0.0,,,,,,,,0,C,B,A,7.0,3.0,9.0,5.0,1.0,0.0,0.0,1.0,0.0,5,8,2,6,9,3,4,7,1,1570.5747637999975,1578.500513119996,7.925749319998431,1578.500513119996,1581.8004225199966,3.2999094000006153,1581.8004225199966,1587.049548719997,5.249126200000319,16.474784919999365,19.0,6.0,6.333333333333333,2.0
